ExperimentName,Subject,Session,Clock.Information,Display.RefreshRate,Group,RandomSeed,SessionDate,SessionTime,Block,CorrectResponse,Equation.ACC,Equation.CRESP,Equation.OnsetTime,Equation.RESP,Equation.RT,ID,JitterNull,List1,List1.Cycle,List1.Sample,Procedure,Running,Stimulus,Condition,ACCaddition_060418_jma,4000,1,"<?xml version=""1.0""?>\n<Clock xmlns:dt=""urn:schemas-microsoft-com:datatypes""><Description dt:dt=""string"">E-Prime Primary Realtime Clock</Description><StartTime><Timestamp dt:dt=""int"">0</Timestamp><DateUtc dt:dt=""string"">2009-08-28T22:06:17Z</DateUtc></StartTime><FrequencyChanges><FrequencyChange><Frequency dt:dt=""r8"">3591060000</Frequency><Timestamp dt:dt=""r8"">41512349672919</Timestamp><Current dt:dt=""r8"">0</Current><DateUtc dt:dt=""string"">1969-12-31T18:46:40Z</DateUtc></FrequencyChange></FrequencyChanges></Clock>\n",59.863,1,1764488965,8/28/09,15:06:17,1,1,1,1,86834,1,2604,1,0,1,1,1,AdditionProc,List1,3 + 5 = 8,complex,1addition_060418_jma,4000,1,"<?xml version=""1.0""?>\n<Clock xmlns:dt=""urn:schemas-microsoft-com:datatypes""><Description dt:dt=""string"">E-Prime Primary Realtime Clock</Description><StartTime><Timestamp dt:dt=""int"">0</Timestamp><DateUtc dt:dt=""string"">2009-08-28T22:06:17Z</DateUtc></StartTime><FrequencyChanges><FrequencyChange><Frequency dt:dt=""r8"">3591060000</Frequency><Timestamp dt:dt=""r8"">41512349672919</Timestamp><Current dt:dt=""r8"">0</Current><DateUtc dt:dt=""string"">1969-12-31T18:46:40Z</DateUtc></FrequencyChange></FrequencyChanges></Clock>\n",59.863,1,1764488965,8/28/09,15:06:17,2,2,0,2,92363,1,2545,2,2500,2,1,2,AdditionProc,List1,5 + 2 = 9,complex,0addition_060418_jma,4000,1,"<?xml version=""1.0""?>\n<Clock xmlns:dt=""urn:schemas-microsoft-com:datatypes""><Description dt:dt=""string"">E-Prime Primary Realtime Clock</Description><StartTime><Timestamp dt:dt=""int"">0</Timestamp><DateUtc dt:dt=""string"">2009-08-28T22:06:17Z</DateUtc></StartTime><FrequencyChanges><FrequencyChange><Frequency dt:dt=""r8"">3591060000</Frequency><Timestamp dt:dt=""r8"">41512349672919</Timestamp><Current dt:dt=""r8"">0</Current><DateUtc dt:dt=""string"">1969-12-31T18:46:40Z</DateUtc></FrequencyChange></FrequencyChanges></Clock>\n",59.863,1,1764488965,8/28/09,15:06:17,3,2,1,2,100381,2,4189,3,2500,3,1,3,AdditionProc,List1,9 + 1 = 8,simple,1addition_060418_jma,4000,1,"<?xml version=""1.0""?>\n<Clock xmlns:dt=""urn:schemas-microsoft-com:datatypes""><Description dt:dt=""string"">E-Prime Primary Realtime Clock</Description><StartTime><Timestamp dt:dt=""int"">0</Timestamp><DateUtc dt:dt=""string"">2009-08-28T22:06:17Z</DateUtc></StartTime><FrequencyChanges><FrequencyChange><Frequency dt:dt=""r8"">3591060000</Frequency><Timestamp dt:dt=""r8"">41512349672919</Timestamp><Current dt:dt=""r8"">0</Current><DateUtc dt:dt=""string"">1969-12-31T18:46:40Z</DateUtc></FrequencyChange></FrequencyChanges></Clock>\n",59.863,1,1764488965,8/28/09,15:06:17,4,2,0,2,108399,,0,4,3500,4,1,4,AdditionProc,List1,8 + 1 = 7,simple,0addition_060418_jma,4000,1,"<?xml version=""1.0""?>\n<Clock xmlns:dt=""urn:schemas-microsoft-com:datatypes""><Description dt:dt=""string"">E-Prime Primary Realtime Clock</Description><StartTime><Timestamp dt:dt=""int"">0</Timestamp><DateUtc dt:dt=""string"">2009-08-28T22:06:17Z</DateUtc></StartTime><FrequencyChanges><FrequencyChange><Frequency dt:dt=""r8"">3591060000</Frequency><Timestamp dt:dt=""r8"">41512349672919</Timestamp><Current dt:dt=""r8"">0</Current><DateUtc dt:dt=""string"">1969-12-31T18:46:40Z</DateUtc></FrequencyChange></FrequencyChanges></Clock>\n",59.863,1,1764488965,8/28/09,15:06:17,5,2,1,2,117420,2,3770,5,0,5,1,5,AdditionProc,List1,6 + 2 = 10,complex,1addition_060418_jma,4000,1,"<?xml version=""1.0""?>\n<Clock xmlns:dt=""urn:schemas-microsoft-com:datatypes""><Description dt:dt=""string"">E-Prime Primary Realtime Clock</Description><StartTime><Timestamp dt:dt=""int"">0</Timestamp><DateUtc dt:dt=""string"">2009-08-28T22:06:17Z</DateUtc></StartTime><FrequencyChanges><FrequencyChange><Frequency dt:dt=""r8"">3591060000</Frequency><Timestamp dt:dt=""r8"">41512349672919</Timestamp><Current dt:dt=""r8"">0</Current><DateUtc dt:dt=""string"">1969-12-31T18:46:40Z</DateUtc></FrequencyChange></FrequencyChanges></Clock>\n",59.863,1,1764488965,8/28/09,15:06:17,6,1,1,1,122949,1,3456,6,0,6,1,6,AdditionProc,List1,3 + 1 = 4,simple,1addition_060418_jma,4000,1,"<?xml version=""1.0""?>\n<Clock xmlns:dt=""urn:schemas-microsoft-com:datatypes""><Description dt:dt=""string"">E-Prime Primary Realtime Clock</Description><StartTime><Timestamp dt:dt=""int"">0</Timestamp><DateUtc dt:dt=""string"">2009-08-28T22:06:17Z</DateUtc></StartTime><FrequencyChanges><FrequencyChange><Frequency dt:dt=""r8"">3591060000</Frequency><Timestamp dt:dt=""r8"">41512349672919</Timestamp><Current dt:dt=""r8"">0</Current><DateUtc dt:dt=""string"">1969-12-31T18:46:40Z</DateUtc></FrequencyChange></FrequencyChanges></Clock>\n",59.863,1,1764488965,8/28/09,15:06:17,7,1,1,1,128479,1,3898,7,3500,7,1,7,AdditionProc,List1,6 + 1 = 7,simple,1addition_060418_jma,4000,1,"<?xml version=""1.0""?>\n<Clock xmlns:dt=""urn:schemas-microsoft-com:datatypes""><Description dt:dt=""string"">E-Prime Primary Realtime Clock</Description><StartTime><Timestamp dt:dt=""int"">0</Timestamp><DateUtc dt:dt=""string"">2009-08-28T22:06:17Z</DateUtc></StartTime><FrequencyChanges><FrequencyChange><Frequency dt:dt=""r8"">3591060000</Frequency><Timestamp dt:dt=""r8"">41512349672919</Timestamp><Current dt:dt=""r8"">0</Current><DateUtc dt:dt=""string"">1969-12-31T18:46:40Z</DateUtc></FrequencyChange></FrequencyChanges></Clock>\n",59.863,1,1764488965,8/28/09,15:06:17,8,2,1,2,137499,2,4226,8,0,8,1,8,AdditionProc,List1,2 + 1 = 2,simple,1addition_060418_jma,4000,1,"<?xml version=""1.0""?>\n<Clock xmlns:dt=""urn:schemas-microsoft-com:datatypes""><Description dt:dt=""string"">E-Prime Primary Realtime Clock</Description><StartTime><Timestamp dt:dt=""int"">0</Timestamp><DateUtc dt:dt=""string"">2009-08-28T22:06:17Z</DateUtc></StartTime><FrequencyChanges><FrequencyChange><Frequency dt:dt=""r8"">3591060000</Frequency><Timestamp dt:dt=""r8"">41512349672919</Timestamp><Current dt:dt=""r8"">0</Current><DateUtc dt:dt=""string"">1969-12-31T18:46:40Z</DateUtc></FrequencyChange></FrequencyChanges></Clock>\n",59.863,1,1764488965,8/28/09,15:06:17,9,2,0,2,143028,,0,9,0,9,1,9,AdditionProc,List1,1 + 6 = 6,simple,0addition_060418_jma,4000,1,"<?xml version=""1.0""?>\n<Clock xmlns:dt=""urn:schemas-microsoft-com:datatypes""><Description dt:dt=""string"">E-Prime Primary Realtime Clock</Description><StartTime><Timestamp dt:dt=""int"">0</Timestamp><DateUtc dt:dt=""string"">2009-08-28T22:06:17Z</DateUtc></StartTime><FrequencyChanges><FrequencyChange><Frequency dt:dt=""r8"">3591060000</Frequency><Timestamp dt:dt=""r8"">41512349672919</Timestamp><Current dt:dt=""r8"">0</Current><DateUtc dt:dt=""string"">1969-12-31T18:46:40Z</DateUtc></FrequencyChange></FrequencyChanges></Clock>\n",59.863,1,1764488965,8/28/09,15:06:17,10,1,1,1,148558,1,3372,10,2500,10,1,10,AdditionProc,List1,1 + 9 = 10,simple,1addition_060418_jma,4000,1,"<?xml version=""1.0""?>\n<Clock xmlns:dt=""urn:schemas-microsoft-com:datatypes""><Description dt:dt=""string"">E-Prime Primary Realtime Clock</Description><StartTime><Timestamp dt:dt=""int"">0</Timestamp><DateUtc dt:dt=""string"">2009-08-28T22:06:17Z</DateUtc></StartTime><FrequencyChanges><FrequencyChange><Frequency dt:dt=""r8"">3591060000</Frequency><Timestamp dt:dt=""r8"">41512349672919</Timestamp><Current dt:dt=""r8"">0</Current><DateUtc dt:dt=""string"">1969-12-31T18:46:40Z</DateUtc></FrequencyChange></FrequencyChanges></Clock>\n",59.863,1,1764488965,8/28/09,15:06:17,11,1,1,1,156576,1,2649,11,2500,11,1,11,AdditionProc,List1,1 + 2 = 3,simple,1addition_060418_jma,4000,1,"<?xml version=""1.0""?>\n<Clock xmlns:dt=""urn:schemas-microsoft-com:datatypes""><Description dt:dt=""string"">E-Prime Primary Realtime Clock</Description><StartTime><Timestamp dt:dt=""int"">0</Timestamp><DateUtc dt:dt=""string"">2009-08-28T22:06:17Z</DateUtc></StartTime><FrequencyChanges><FrequencyChange><Frequency dt:dt=""r8"">3591060000</Frequency><Timestamp dt:dt=""r8"">41512349672919</Timestamp><Current dt:dt=""r8"">0</Current><DateUtc dt:dt=""string"">1969-12-31T18:46:40Z</DateUtc></FrequencyChange></FrequencyChanges></Clock>\n",59.863,1,1764488965,8/28/09,15:06:17,12,1,1,1,164594,1,3663,12,0,12,1,12,AdditionProc,List1,2 + 9 = 11,complex,1addition_060418_jma,4000,1,"<?xml version=""1.0""?>\n<Clock xmlns:dt=""urn:schemas-microsoft-com:datatypes""><Description dt:dt=""string"">E-Prime Primary Realtime Clock</Description><StartTime><Timestamp dt:dt=""int"">0</Timestamp><DateUtc dt:dt=""string"">2009-08-28T22:06:17Z</DateUtc></StartTime><FrequencyChanges><FrequencyChange><Frequency dt:dt=""r8"">3591060000</Frequency><Timestamp dt:dt=""r8"">41512349672919</Timestamp><Current dt:dt=""r8"">0</Current><DateUtc dt:dt=""string"">1969-12-31T18:46:40Z</DateUtc></FrequencyChange></FrequencyChanges></Clock>\n",59.863,1,1764488965,8/28/09,15:06:17,13,1,1,1,170124,1,1877,13,2500,13,1,13,AdditionProc,List1,3 + 9 = 12,complex,1addition_060418_jma,4000,1,"<?xml version=""1.0""?>\n<Clock xmlns:dt=""urn:schemas-microsoft-com:datatypes""><Description dt:dt=""string"">E-Prime Primary Realtime Clock</Description><StartTime><Timestamp dt:dt=""int"">0</Timestamp><DateUtc dt:dt=""string"">2009-08-28T22:06:17Z</DateUtc></StartTime><FrequencyChanges><FrequencyChange><Frequency dt:dt=""r8"">3591060000</Frequency><Timestamp dt:dt=""r8"">41512349672919</Timestamp><Current dt:dt=""r8"">0</Current><DateUtc dt:dt=""string"">1969-12-31T18:46:40Z</DateUtc></FrequencyChange></FrequencyChanges></Clock>\n",59.863,1,1764488965,8/28/09,15:06:17,14,1,1,1,178142,1,1849,14,3500,14,1,14,AdditionProc,List1,4 + 1 = 5,simple,1addition_060418_jma,4000,1,"<?xml version=""1.0""?>\n<Clock xmlns:dt=""urn:schemas-microsoft-com:datatypes""><Description dt:dt=""string"">E-Prime Primary Realtime Clock</Description><StartTime><Timestamp dt:dt=""int"">0</Timestamp><DateUtc dt:dt=""string"">2009-08-28T22:06:17Z</DateUtc></StartTime><FrequencyChanges><FrequencyChange><Frequency dt:dt=""r8"">3591060000</Frequency><Timestamp dt:dt=""r8"">41512349672919</Timestamp><Current dt:dt=""r8"">0</Current><DateUtc dt:dt=""string"">1969-12-31T18:46:40Z</DateUtc></FrequencyChange></FrequencyChanges></Clock>\n",59.863,1,1764488965,8/28/09,15:06:17,15,1,1,1,187163,1,4191,15,3500,15,1,15,AdditionProc,List1,2 + 8 = 10,complex,1addition_060418_jma,4000,1,"<?xml version=""1.0""?>\n<Clock xmlns:dt=""urn:schemas-microsoft-com:datatypes""><Description dt:dt=""string"">E-Prime Primary Realtime Clock</Description><StartTime><Timestamp dt:dt=""int"">0</Timestamp><DateUtc dt:dt=""string"">2009-08-28T22:06:17Z</DateUtc></StartTime><FrequencyChanges><FrequencyChange><Frequency dt:dt=""r8"">3591060000</Frequency><Timestamp dt:dt=""r8"">41512349672919</Timestamp><Current dt:dt=""r8"">0</Current><DateUtc dt:dt=""string"">1969-12-31T18:46:40Z</DateUtc></FrequencyChange></FrequencyChanges></Clock>\n",59.863,1,1764488965,8/28/09,15:06:17,16,2,1,2,196183,2,3642,16,3500,16,1,16,AdditionProc,List1,9 + 4 = 12,complex,1addition_060418_jma,4000,1,"<?xml version=""1.0""?>\n<Clock xmlns:dt=""urn:schemas-microsoft-com:datatypes""><Description dt:dt=""string"">E-Prime Primary Realtime Clock</Description><StartTime><Timestamp dt:dt=""int"">0</Timestamp><DateUtc dt:dt=""string"">2009-08-28T22:06:17Z</DateUtc></StartTime><FrequencyChanges><FrequencyChange><Frequency dt:dt=""r8"">3591060000</Frequency><Timestamp dt:dt=""r8"">41512349672919</Timestamp><Current dt:dt=""r8"">0</Current><DateUtc dt:dt=""string"">1969-12-31T18:46:40Z</DateUtc></FrequencyChange></FrequencyChanges></Clock>\n",59.863,1,1764488965,8/28/09,15:06:17,17,2,1,2,205204,2,4218,17,0,17,1,17,AdditionProc,List1,7 + 1 = 10,simple,1addition_060418_jma,4000,1,"<?xml version=""1.0""?>\n<Clock xmlns:dt=""urn:schemas-microsoft-com:datatypes""><Description dt:dt=""string"">E-Prime Primary Realtime Clock</Description><StartTime><Timestamp dt:dt=""int"">0</Timestamp><DateUtc dt:dt=""string"">2009-08-28T22:06:17Z</DateUtc></StartTime><FrequencyChanges><FrequencyChange><Frequency dt:dt=""r8"">3591060000</Frequency><Timestamp dt:dt=""r8"">41512349672919</Timestamp><Current dt:dt=""r8"">0</Current><DateUtc dt:dt=""string"">1969-12-31T18:46:40Z</DateUtc></FrequencyChange></FrequencyChanges></Clock>\n",59.863,1,1764488965,8/28/09,15:06:17,18,1,1,1,210733,1,2251,18,3500,18,1,18,AdditionProc,List1,8 + 1 = 9,simple,1addition_060418_jma,4000,1,"<?xml version=""1.0""?>\n<Clock xmlns:dt=""urn:schemas-microsoft-com:datatypes""><Description dt:dt=""string"">E-Prime Primary Realtime Clock</Description><StartTime><Timestamp dt:dt=""int"">0</Timestamp><DateUtc dt:dt=""string"">2009-08-28T22:06:17Z</DateUtc></StartTime><FrequencyChanges><FrequencyChange><Frequency dt:dt=""r8"">3591060000</Frequency><Timestamp dt:dt=""r8"">41512349672919</Timestamp><Current dt:dt=""r8"">0</Current><DateUtc dt:dt=""string"">1969-12-31T18:46:40Z</DateUtc></FrequencyChange></FrequencyChanges></Clock>\n",59.863,1,1764488965,8/28/09,15:06:17,19,2,0,2,219754,,0,19,2500,19,1,19,AdditionProc,List1,9 + 2 = 10,complex,0addition_060418_jma,4000,1,"<?xml version=""1.0""?>\n<Clock xmlns:dt=""urn:schemas-microsoft-com:datatypes""><Description dt:dt=""string"">E-Prime Primary Realtime Clock</Description><StartTime><Timestamp dt:dt=""int"">0</Timestamp><DateUtc dt:dt=""string"">2009-08-28T22:06:17Z</DateUtc></StartTime><FrequencyChanges><FrequencyChange><Frequency dt:dt=""r8"">3591060000</Frequency><Timestamp dt:dt=""r8"">41512349672919</Timestamp><Current dt:dt=""r8"">0</Current><DateUtc dt:dt=""string"">1969-12-31T18:46:40Z</DateUtc></FrequencyChange></FrequencyChanges></Clock>\n",59.863,1,1764488965,8/28/09,15:06:17,20,1,1,1,227772,1,2683,20,0,20,1,20,AdditionProc,List1,3 + 1 = 4,simple,1addition_060418_jma,4000,1,"<?xml version=""1.0""?>\n<Clock xmlns:dt=""urn:schemas-microsoft-com:datatypes""><Description dt:dt=""string"">E-Prime Primary Realtime Clock</Description><StartTime><Timestamp dt:dt=""int"">0</Timestamp><DateUtc dt:dt=""string"">2009-08-28T22:06:17Z</DateUtc></StartTime><FrequencyChanges><FrequencyChange><Frequency dt:dt=""r8"">3591060000</Frequency><Timestamp dt:dt=""r8"">41512349672919</Timestamp><Current dt:dt=""r8"">0</Current><DateUtc dt:dt=""string"">1969-12-31T18:46:40Z</DateUtc></FrequencyChange></FrequencyChanges></Clock>\n",59.863,1,1764488965,8/28/09,15:06:17,21,2,1,2,233301,2,3829,21,2500,21,1,21,AdditionProc,List1,4 + 7 = 10,complex,1addition_060418_jma,4000,1,"<?xml version=""1.0""?>\n<Clock xmlns:dt=""urn:schemas-microsoft-com:datatypes""><Description dt:dt=""string"">E-Prime Primary Realtime Clock</Description><StartTime><Timestamp dt:dt=""int"">0</Timestamp><DateUtc dt:dt=""string"">2009-08-28T22:06:17Z</DateUtc></StartTime><FrequencyChanges><FrequencyChange><Frequency dt:dt=""r8"">3591060000</Frequency><Timestamp dt:dt=""r8"">41512349672919</Timestamp><Current dt:dt=""r8"">0</Current><DateUtc dt:dt=""string"">1969-12-31T18:46:40Z</DateUtc></FrequencyChange></FrequencyChanges></Clock>\n",59.863,1,1764488965,8/28/09,15:06:17,22,2,0,2,241319,1,2379,22,0,22,1,22,AdditionProc,List1,8 + 3 = 13,complex,0addition_060418_jma,4000,1,"<?xml version=""1.0""?>\n<Clock xmlns:dt=""urn:schemas-microsoft-com:datatypes""><Description dt:dt=""string"">E-Prime Primary Realtime Clock</Description><StartTime><Timestamp dt:dt=""int"">0</Timestamp><DateUtc dt:dt=""string"">2009-08-28T22:06:17Z</DateUtc></StartTime><FrequencyChanges><FrequencyChange><Frequency dt:dt=""r8"">3591060000</Frequency><Timestamp dt:dt=""r8"">41512349672919</Timestamp><Current dt:dt=""r8"">0</Current><DateUtc dt:dt=""string"">1969-12-31T18:46:40Z</DateUtc></FrequencyChange></FrequencyChanges></Clock>\n",59.863,1,1764488965,8/28/09,15:06:17,23,2,0,2,246849,,0,23,0,23,1,23,AdditionProc,List1,3 + 8 = 9,complex,0addition_060418_jma,4000,1,"<?xml version=""1.0""?>\n<Clock xmlns:dt=""urn:schemas-microsoft-com:datatypes""><Description dt:dt=""string"">E-Prime Primary Realtime Clock</Description><StartTime><Timestamp dt:dt=""int"">0</Timestamp><DateUtc dt:dt=""string"">2009-08-28T22:06:17Z</DateUtc></StartTime><FrequencyChanges><FrequencyChange><Frequency dt:dt=""r8"">3591060000</Frequency><Timestamp dt:dt=""r8"">41512349672919</Timestamp><Current dt:dt=""r8"">0</Current><DateUtc dt:dt=""string"">1969-12-31T18:46:40Z</DateUtc></FrequencyChange></FrequencyChanges></Clock>\n",59.863,1,1764488965,8/28/09,15:06:17,24,2,1,2,252378,2,4842,24,0,24,1,24,AdditionProc,List1,6 + 1 = 8,simple,1addition_060418_jma,4000,1,"<?xml version=""1.0""?>\n<Clock xmlns:dt=""urn:schemas-microsoft-com:datatypes""><Description dt:dt=""string"">E-Prime Primary Realtime Clock</Description><StartTime><Timestamp dt:dt=""int"">0</Timestamp><DateUtc dt:dt=""string"">2009-08-28T22:06:17Z</DateUtc></StartTime><FrequencyChanges><FrequencyChange><Frequency dt:dt=""r8"">3591060000</Frequency><Timestamp dt:dt=""r8"">41512349672919</Timestamp><Current dt:dt=""r8"">0</Current><DateUtc dt:dt=""string"">1969-12-31T18:46:40Z</DateUtc></FrequencyChange></FrequencyChanges></Clock>\n",59.863,1,1764488965,8/28/09,15:06:17,25,1,1,1,257907,1,4201,25,2500,25,1,25,AdditionProc,List1,5 + 9 = 14,complex,1addition_060418_jma,4000,1,"<?xml version=""1.0""?>\n<Clock xmlns:dt=""urn:schemas-microsoft-com:datatypes""><Description dt:dt=""string"">E-Prime Primary Realtime Clock</Description><StartTime><Timestamp dt:dt=""int"">0</Timestamp><DateUtc dt:dt=""string"">2009-08-28T22:06:17Z</DateUtc></StartTime><FrequencyChanges><FrequencyChange><Frequency dt:dt=""r8"">3591060000</Frequency><Timestamp dt:dt=""r8"">41512349672919</Timestamp><Current dt:dt=""r8"">0</Current><DateUtc dt:dt=""string"">1969-12-31T18:46:40Z</DateUtc></FrequencyChange></FrequencyChanges></Clock>\n",59.863,1,1764488965,8/28/09,15:06:17,26,1,0,1,265926,,0,26,3500,26,1,26,AdditionProc,List1,4 + 7 = 11,complex,0addition_060418_jma,4000,1,"<?xml version=""1.0""?>\n<Clock xmlns:dt=""urn:schemas-microsoft-com:datatypes""><Description dt:dt=""string"">E-Prime Primary Realtime Clock</Description><StartTime><Timestamp dt:dt=""int"">0</Timestamp><DateUtc dt:dt=""string"">2009-08-28T22:06:17Z</DateUtc></StartTime><FrequencyChanges><FrequencyChange><Frequency dt:dt=""r8"">3591060000</Frequency><Timestamp dt:dt=""r8"">41512349672919</Timestamp><Current dt:dt=""r8"">0</Current><DateUtc dt:dt=""string"">1969-12-31T18:46:40Z</DateUtc></FrequencyChange></FrequencyChanges></Clock>\n",59.863,1,1764488965,8/28/09,15:06:17,27,1,1,1,274946,1,3683,27,2500,27,1,27,AdditionProc,List1,1 + 9 = 10,simple,1addition_060418_jma,4000,1,"<?xml version=""1.0""?>\n<Clock xmlns:dt=""urn:schemas-microsoft-com:datatypes""><Description dt:dt=""string"">E-Prime Primary Realtime Clock</Description><StartTime><Timestamp dt:dt=""int"">0</Timestamp><DateUtc dt:dt=""string"">2009-08-28T22:06:17Z</DateUtc></StartTime><FrequencyChanges><FrequencyChange><Frequency dt:dt=""r8"">3591060000</Frequency><Timestamp dt:dt=""r8"">41512349672919</Timestamp><Current dt:dt=""r8"">0</Current><DateUtc dt:dt=""string"">1969-12-31T18:46:40Z</DateUtc></FrequencyChange></FrequencyChanges></Clock>\n",59.863,1,1764488965,8/28/09,15:06:17,28,2,1,2,282965,2,2821,28,0,28,1,28,AdditionProc,List1,1 + 4 = 7,simple,1addition_060418_jma,4000,1,"<?xml version=""1.0""?>\n<Clock xmlns:dt=""urn:schemas-microsoft-com:datatypes""><Description dt:dt=""string"">E-Prime Primary Realtime Clock</Description><StartTime><Timestamp dt:dt=""int"">0</Timestamp><DateUtc dt:dt=""string"">2009-08-28T22:06:17Z</DateUtc></StartTime><FrequencyChanges><FrequencyChange><Frequency dt:dt=""r8"">3591060000</Frequency><Timestamp dt:dt=""r8"">41512349672919</Timestamp><Current dt:dt=""r8"">0</Current><DateUtc dt:dt=""string"">1969-12-31T18:46:40Z</DateUtc></FrequencyChange></FrequencyChanges></Clock>\n",59.863,1,1764488965,8/28/09,15:06:17,29,1,1,1,288494,1,2063,29,0,29,1,29,AdditionProc,List1,1 + 8 = 9,simple,1addition_060418_jma,4000,1,"<?xml version=""1.0""?>\n<Clock xmlns:dt=""urn:schemas-microsoft-com:datatypes""><Description dt:dt=""string"">E-Prime Primary Realtime Clock</Description><StartTime><Timestamp dt:dt=""int"">0</Timestamp><DateUtc dt:dt=""string"">2009-08-28T22:06:17Z</DateUtc></StartTime><FrequencyChanges><FrequencyChange><Frequency dt:dt=""r8"">3591060000</Frequency><Timestamp dt:dt=""r8"">41512349672919</Timestamp><Current dt:dt=""r8"">0</Current><DateUtc dt:dt=""string"">1969-12-31T18:46:40Z</DateUtc></FrequencyChange></FrequencyChanges></Clock>\n",59.863,1,1764488965,8/28/09,15:06:17,30,2,1,2,294023,2,3997,30,2500,30,1,30,AdditionProc,List1,4 + 5 = 11,complex,1addition_060418_jma,4000,1,"<?xml version=""1.0""?>\n<Clock xmlns:dt=""urn:schemas-microsoft-com:datatypes""><Description dt:dt=""string"">E-Prime Primary Realtime Clock</Description><StartTime><Timestamp dt:dt=""int"">0</Timestamp><DateUtc dt:dt=""string"">2009-08-28T22:06:17Z</DateUtc></StartTime><FrequencyChanges><FrequencyChange><Frequency dt:dt=""r8"">3591060000</Frequency><Timestamp dt:dt=""r8"">41512349672919</Timestamp><Current dt:dt=""r8"">0</Current><DateUtc dt:dt=""string"">1969-12-31T18:46:40Z</DateUtc></FrequencyChange></FrequencyChanges></Clock>\n",59.863,1,1764488965,8/28/09,15:06:17,31,1,0,1,302041,,0,31,0,31,1,31,AdditionProc,List1,7 + 2 = 9,complex,0addition_060418_jma,4000,1,"<?xml version=""1.0""?>\n<Clock xmlns:dt=""urn:schemas-microsoft-com:datatypes""><Description dt:dt=""string"">E-Prime Primary Realtime Clock</Description><StartTime><Timestamp dt:dt=""int"">0</Timestamp><DateUtc dt:dt=""string"">2009-08-28T22:06:17Z</DateUtc></StartTime><FrequencyChanges><FrequencyChange><Frequency dt:dt=""r8"">3591060000</Frequency><Timestamp dt:dt=""r8"">41512349672919</Timestamp><Current dt:dt=""r8"">0</Current><DateUtc dt:dt=""string"">1969-12-31T18:46:40Z</DateUtc></FrequencyChange></FrequencyChanges></Clock>\n",59.863,1,1764488965,8/28/09,15:06:17,32,2,1,2,307571,2,4485,32,0,32,1,32,AdditionProc,List1,4 + 9 = 14,complex,1addition_060418_jma,4000,1,"<?xml version=""1.0""?>\n<Clock xmlns:dt=""urn:schemas-microsoft-com:datatypes""><Description dt:dt=""string"">E-Prime Primary Realtime Clock</Description><StartTime><Timestamp dt:dt=""int"">0</Timestamp><DateUtc dt:dt=""string"">2009-08-28T22:06:17Z</DateUtc></StartTime><FrequencyChanges><FrequencyChange><Frequency dt:dt=""r8"">3591060000</Frequency><Timestamp dt:dt=""r8"">41512349672919</Timestamp><Current dt:dt=""r8"">0</Current><DateUtc dt:dt=""string"">1969-12-31T18:46:40Z</DateUtc></FrequencyChange></FrequencyChanges></Clock>\n",59.863,1,1764488965,8/28/09,15:06:17,33,1,1,1,313100,1,3122,33,2500,33,1,33,AdditionProc,List1,8 + 5 = 13,complex,1addition_060418_jma,4000,1,"<?xml version=""1.0""?>\n<Clock xmlns:dt=""urn:schemas-microsoft-com:datatypes""><Description dt:dt=""string"">E-Prime Primary Realtime Clock</Description><StartTime><Timestamp dt:dt=""int"">0</Timestamp><DateUtc dt:dt=""string"">2009-08-28T22:06:17Z</DateUtc></StartTime><FrequencyChanges><FrequencyChange><Frequency dt:dt=""r8"">3591060000</Frequency><Timestamp dt:dt=""r8"">41512349672919</Timestamp><Current dt:dt=""r8"">0</Current><DateUtc dt:dt=""string"">1969-12-31T18:46:40Z</DateUtc></FrequencyChange></FrequencyChanges></Clock>\n",59.863,1,1764488965,8/28/09,15:06:17,34,1,0,1,321118,2,4459,34,3500,34,1,34,AdditionProc,List1,1 + 8 = 9,simple,0addition_060418_jma,4000,1,"<?xml version=""1.0""?>\n<Clock xmlns:dt=""urn:schemas-microsoft-com:datatypes""><Description dt:dt=""string"">E-Prime Primary Realtime Clock</Description><StartTime><Timestamp dt:dt=""int"">0</Timestamp><DateUtc dt:dt=""string"">2009-08-28T22:06:17Z</DateUtc></StartTime><FrequencyChanges><FrequencyChange><Frequency dt:dt=""r8"">3591060000</Frequency><Timestamp dt:dt=""r8"">41512349672919</Timestamp><Current dt:dt=""r8"">0</Current><DateUtc dt:dt=""string"">1969-12-31T18:46:40Z</DateUtc></FrequencyChange></FrequencyChanges></Clock>\n",59.863,1,1764488965,8/28/09,15:06:17,35,2,1,2,330139,2,3648,35,3500,35,1,35,AdditionProc,List1,7 + 1 = 9,simple,1addition_060418_jma,4000,1,"<?xml version=""1.0""?>\n<Clock xmlns:dt=""urn:schemas-microsoft-com:datatypes""><Description dt:dt=""string"">E-Prime Primary Realtime Clock</Description><StartTime><Timestamp dt:dt=""int"">0</Timestamp><DateUtc dt:dt=""string"">2009-08-28T22:06:17Z</DateUtc></StartTime><FrequencyChanges><FrequencyChange><Frequency dt:dt=""r8"">3591060000</Frequency><Timestamp dt:dt=""r8"">41512349672919</Timestamp><Current dt:dt=""r8"">0</Current><DateUtc dt:dt=""string"">1969-12-31T18:46:40Z</DateUtc></FrequencyChange></FrequencyChanges></Clock>\n",59.863,1,1764488965,8/28/09,15:06:17,36,1,1,1,339159,1,4874,36,2500,36,1,36,AdditionProc,List1,1 + 8 = 9,simple,1addition_060418_jma,4000,1,"<?xml version=""1.0""?>\n<Clock xmlns:dt=""urn:schemas-microsoft-com:datatypes""><Description dt:dt=""string"">E-Prime Primary Realtime Clock</Description><StartTime><Timestamp dt:dt=""int"">0</Timestamp><DateUtc dt:dt=""string"">2009-08-28T22:06:17Z</DateUtc></StartTime><FrequencyChanges><FrequencyChange><Frequency dt:dt=""r8"">3591060000</Frequency><Timestamp dt:dt=""r8"">41512349672919</Timestamp><Current dt:dt=""r8"">0</Current><DateUtc dt:dt=""string"">1969-12-31T18:46:40Z</DateUtc></FrequencyChange></FrequencyChanges></Clock>\n",59.863,1,1764488965,8/28/09,15:06:17,37,2,0,2,347178,,0,37,0,37,1,37,AdditionProc,List1,7 + 5 = 13,complex,0addition_060418_jma,4000,1,"<?xml version=""1.0""?>\n<Clock xmlns:dt=""urn:schemas-microsoft-com:datatypes""><Description dt:dt=""string"">E-Prime Primary Realtime Clock</Description><StartTime><Timestamp dt:dt=""int"">0</Timestamp><DateUtc dt:dt=""string"">2009-08-28T22:06:17Z</DateUtc></StartTime><FrequencyChanges><FrequencyChange><Frequency dt:dt=""r8"">3591060000</Frequency><Timestamp dt:dt=""r8"">41512349672919</Timestamp><Current dt:dt=""r8"">0</Current><DateUtc dt:dt=""string"">1969-12-31T18:46:40Z</DateUtc></FrequencyChange></FrequencyChanges></Clock>\n",59.863,1,1764488965,8/28/09,15:06:17,38,1,1,1,352707,1,3822,38,3500,38,1,38,AdditionProc,List1,9 + 5 = 14,complex,1addition_060418_jma,4000,1,"<?xml version=""1.0""?>\n<Clock xmlns:dt=""urn:schemas-microsoft-com:datatypes""><Description dt:dt=""string"">E-Prime Primary Realtime Clock</Description><StartTime><Timestamp dt:dt=""int"">0</Timestamp><DateUtc dt:dt=""string"">2009-08-28T22:06:17Z</DateUtc></StartTime><FrequencyChanges><FrequencyChange><Frequency dt:dt=""r8"">3591060000</Frequency><Timestamp dt:dt=""r8"">41512349672919</Timestamp><Current dt:dt=""r8"">0</Current><DateUtc dt:dt=""string"">1969-12-31T18:46:40Z</DateUtc></FrequencyChange></FrequencyChanges></Clock>\n",59.863,1,1764488965,8/28/09,15:06:17,39,2,0,2,361728,,0,39,2500,39,1,39,AdditionProc,List1,1 + 3 = 5,simple,0addition_060418_jma,4000,1,"<?xml version=""1.0""?>\n<Clock xmlns:dt=""urn:schemas-microsoft-com:datatypes""><Description dt:dt=""string"">E-Prime Primary Realtime Clock</Description><StartTime><Timestamp dt:dt=""int"">0</Timestamp><DateUtc dt:dt=""string"">2009-08-28T22:06:17Z</DateUtc></StartTime><FrequencyChanges><FrequencyChange><Frequency dt:dt=""r8"">3591060000</Frequency><Timestamp dt:dt=""r8"">41512349672919</Timestamp><Current dt:dt=""r8"">0</Current><DateUtc dt:dt=""string"">1969-12-31T18:46:40Z</DateUtc></FrequencyChange></FrequencyChanges></Clock>\n",59.863,1,1764488965,8/28/09,15:06:17,40,1,1,1,369746,1,2514,40,2500,40,1,40,AdditionProc,List1,4 + 1 = 5,simple,1addition_060418_jma,4000,1,"<?xml version=""1.0""?>\n<Clock xmlns:dt=""urn:schemas-microsoft-com:datatypes""><Description dt:dt=""string"">E-Prime Primary Realtime Clock</Description><StartTime><Timestamp dt:dt=""int"">0</Timestamp><DateUtc dt:dt=""string"">2009-08-28T22:06:17Z</DateUtc></StartTime><FrequencyChanges><FrequencyChange><Frequency dt:dt=""r8"">3591060000</Frequency><Timestamp dt:dt=""r8"">41512349672919</Timestamp><Current dt:dt=""r8"">0</Current><DateUtc dt:dt=""string"">1969-12-31T18:46:40Z</DateUtc></FrequencyChange></FrequencyChanges></Clock>\n",59.863,1,1764488965,8/28/09,15:06:17,41,2,1,2,377764,2,3849,41,0,41,1,41,AdditionProc,List1,9 + 4 = 11,complex,1addition_060418_jma,4000,1,"<?xml version=""1.0""?>\n<Clock xmlns:dt=""urn:schemas-microsoft-com:datatypes""><Description dt:dt=""string"">E-Prime Primary Realtime Clock</Description><StartTime><Timestamp dt:dt=""int"">0</Timestamp><DateUtc dt:dt=""string"">2009-08-28T22:06:17Z</DateUtc></StartTime><FrequencyChanges><FrequencyChange><Frequency dt:dt=""r8"">3591060000</Frequency><Timestamp dt:dt=""r8"">41512349672919</Timestamp><Current dt:dt=""r8"">0</Current><DateUtc dt:dt=""string"">1969-12-31T18:46:40Z</DateUtc></FrequencyChange></FrequencyChanges></Clock>\n",59.863,1,1764488965,8/28/09,15:06:17,42,2,1,2,383294,2,4227,42,3500,42,1,42,AdditionProc,List1,8 + 4 = 11,complex,1addition_060418_jma,4000,1,"<?xml version=""1.0""?>\n<Clock xmlns:dt=""urn:schemas-microsoft-com:datatypes""><Description dt:dt=""string"">E-Prime Primary Realtime Clock</Description><StartTime><Timestamp dt:dt=""int"">0</Timestamp><DateUtc dt:dt=""string"">2009-08-28T22:06:17Z</DateUtc></StartTime><FrequencyChanges><FrequencyChange><Frequency dt:dt=""r8"">3591060000</Frequency><Timestamp dt:dt=""r8"">41512349672919</Timestamp><Current dt:dt=""r8"">0</Current><DateUtc dt:dt=""string"">1969-12-31T18:46:40Z</DateUtc></FrequencyChange></FrequencyChanges></Clock>\n",59.863,1,1764488965,8/28/09,15:06:17,43,2,1,2,392314,2,4740,43,0,43,1,43,AdditionProc,List1,5 + 1 = 5,simple,1addition_060418_jma,4000,1,"<?xml version=""1.0""?>\n<Clock xmlns:dt=""urn:schemas-microsoft-com:datatypes""><Description dt:dt=""string"">E-Prime Primary Realtime Clock</Description><StartTime><Timestamp dt:dt=""int"">0</Timestamp><DateUtc dt:dt=""string"">2009-08-28T22:06:17Z</DateUtc></StartTime><FrequencyChanges><FrequencyChange><Frequency dt:dt=""r8"">3591060000</Frequency><Timestamp dt:dt=""r8"">41512349672919</Timestamp><Current dt:dt=""r8"">0</Current><DateUtc dt:dt=""string"">1969-12-31T18:46:40Z</DateUtc></FrequencyChange></FrequencyChanges></Clock>\n",59.863,1,1764488965,8/28/09,15:06:17,44,2,0,2,397843,,0,44,2500,44,1,44,AdditionProc,List1,1 + 7 = 10,simple,0addition_060418_jma,4000,1,"<?xml version=""1.0""?>\n<Clock xmlns:dt=""urn:schemas-microsoft-com:datatypes""><Description dt:dt=""string"">E-Prime Primary Realtime Clock</Description><StartTime><Timestamp dt:dt=""int"">0</Timestamp><DateUtc dt:dt=""string"">2009-08-28T22:06:17Z</DateUtc></StartTime><FrequencyChanges><FrequencyChange><Frequency dt:dt=""r8"">3591060000</Frequency><Timestamp dt:dt=""r8"">41512349672919</Timestamp><Current dt:dt=""r8"">0</Current><DateUtc dt:dt=""string"">1969-12-31T18:46:40Z</DateUtc></FrequencyChange></FrequencyChanges></Clock>\n",59.863,1,1764488965,8/28/09,15:06:17,45,1,1,1,405862,1,2176,45,0,45,1,45,AdditionProc,List1,2 + 1 = 3,simple,1addition_060418_jma,4000,1,"<?xml version=""1.0""?>\n<Clock xmlns:dt=""urn:schemas-microsoft-com:datatypes""><Description dt:dt=""string"">E-Prime Primary Realtime Clock</Description><StartTime><Timestamp dt:dt=""int"">0</Timestamp><DateUtc dt:dt=""string"">2009-08-28T22:06:17Z</DateUtc></StartTime><FrequencyChanges><FrequencyChange><Frequency dt:dt=""r8"">3591060000</Frequency><Timestamp dt:dt=""r8"">41512349672919</Timestamp><Current dt:dt=""r8"">0</Current><DateUtc dt:dt=""string"">1969-12-31T18:46:40Z</DateUtc></FrequencyChange></FrequencyChanges></Clock>\n",59.863,1,1764488965,8/28/09,15:06:17,46,1,1,1,411391,1,2806,46,2500,46,1,46,AdditionProc,List1,3 + 4 = 7,complex,1addition_060418_jma,4000,1,"<?xml version=""1.0""?>\n<Clock xmlns:dt=""urn:schemas-microsoft-com:datatypes""><Description dt:dt=""string"">E-Prime Primary Realtime Clock</Description><StartTime><Timestamp dt:dt=""int"">0</Timestamp><DateUtc dt:dt=""string"">2009-08-28T22:06:17Z</DateUtc></StartTime><FrequencyChanges><FrequencyChange><Frequency dt:dt=""r8"">3591060000</Frequency><Timestamp dt:dt=""r8"">41512349672919</Timestamp><Current dt:dt=""r8"">0</Current><DateUtc dt:dt=""string"">1969-12-31T18:46:40Z</DateUtc></FrequencyChange></FrequencyChanges></Clock>\n",59.863,1,1764488965,8/28/09,15:06:17,47,1,1,1,419409,1,3162,47,0,47,1,47,AdditionProc,List1,4 + 6 = 10,complex,1addition_060418_jma,4000,1,"<?xml version=""1.0""?>\n<Clock xmlns:dt=""urn:schemas-microsoft-com:datatypes""><Description dt:dt=""string"">E-Prime Primary Realtime Clock</Description><StartTime><Timestamp dt:dt=""int"">0</Timestamp><DateUtc dt:dt=""string"">2009-08-28T22:06:17Z</DateUtc></StartTime><FrequencyChanges><FrequencyChange><Frequency dt:dt=""r8"">3591060000</Frequency><Timestamp dt:dt=""r8"">41512349672919</Timestamp><Current dt:dt=""r8"">0</Current><DateUtc dt:dt=""string"">1969-12-31T18:46:40Z</DateUtc></FrequencyChange></FrequencyChanges></Clock>\n",59.863,1,1764488965,8/28/09,15:06:17,48,2,1,2,424939,2,4832,48,3500,48,1,48,AdditionProc,List1,4 + 3 = 6,complex,1addition_060418_jma,4000,1,"<?xml version=""1.0""?>\n<Clock xmlns:dt=""urn:schemas-microsoft-com:datatypes""><Description dt:dt=""string"">E-Prime Primary Realtime Clock</Description><StartTime><Timestamp dt:dt=""int"">0</Timestamp><DateUtc dt:dt=""string"">2009-08-28T22:06:17Z</DateUtc></StartTime><FrequencyChanges><FrequencyChange><Frequency dt:dt=""r8"">3591060000</Frequency><Timestamp dt:dt=""r8"">41512349672919</Timestamp><Current dt:dt=""r8"">0</Current><DateUtc dt:dt=""string"">1969-12-31T18:46:40Z</DateUtc></FrequencyChange></FrequencyChanges></Clock>\n",59.863,1,1764488965,8/28/09,15:06:17,49,2,0,2,433959,,0,49,3500,49,1,49,AdditionProc,List1,2 + 5 = 9,complex,0addition_060418_jma,4000,1,"<?xml version=""1.0""?>\n<Clock xmlns:dt=""urn:schemas-microsoft-com:datatypes""><Description dt:dt=""string"">E-Prime Primary Realtime Clock</Description><StartTime><Timestamp dt:dt=""int"">0</Timestamp><DateUtc dt:dt=""string"">2009-08-28T22:06:17Z</DateUtc></StartTime><FrequencyChanges><FrequencyChange><Frequency dt:dt=""r8"">3591060000</Frequency><Timestamp dt:dt=""r8"">41512349672919</Timestamp><Current dt:dt=""r8"">0</Current><DateUtc dt:dt=""string"">1969-12-31T18:46:40Z</DateUtc></FrequencyChange></FrequencyChanges></Clock>\n",59.863,1,1764488965,8/28/09,15:06:17,50,2,1,2,442980,2,1525,50,3500,50,1,50,AdditionProc,List1,4 + 1 = 4,simple,1addition_060418_jma,4000,1,"<?xml version=""1.0""?>\n<Clock xmlns:dt=""urn:schemas-microsoft-com:datatypes""><Description dt:dt=""string"">E-Prime Primary Realtime Clock</Description><StartTime><Timestamp dt:dt=""int"">0</Timestamp><DateUtc dt:dt=""string"">2009-08-28T22:06:17Z</DateUtc></StartTime><FrequencyChanges><FrequencyChange><Frequency dt:dt=""r8"">3591060000</Frequency><Timestamp dt:dt=""r8"">41512349672919</Timestamp><Current dt:dt=""r8"">0</Current><DateUtc dt:dt=""string"">1969-12-31T18:46:40Z</DateUtc></FrequencyChange></FrequencyChanges></Clock>\n",59.863,1,1764488965,8/28/09,15:06:17,51,1,0,1,452000,3,2453,51,3500,51,1,51,AdditionProc,List1,1 + 4 = 5,simple,0addition_060418_jma,4000,1,"<?xml version=""1.0""?>\n<Clock xmlns:dt=""urn:schemas-microsoft-com:datatypes""><Description dt:dt=""string"">E-Prime Primary Realtime Clock</Description><StartTime><Timestamp dt:dt=""int"">0</Timestamp><DateUtc dt:dt=""string"">2009-08-28T22:06:17Z</DateUtc></StartTime><FrequencyChanges><FrequencyChange><Frequency dt:dt=""r8"">3591060000</Frequency><Timestamp dt:dt=""r8"">41512349672919</Timestamp><Current dt:dt=""r8"">0</Current><DateUtc dt:dt=""string"">1969-12-31T18:46:40Z</DateUtc></FrequencyChange></FrequencyChanges></Clock>\n",59.863,1,1764488965,8/28/09,15:06:17,52,1,0,1,461021,2,3155,52,3500,52,1,52,AdditionProc,List1,3 + 6 = 9,complex,0addition_060418_jma,4017,2,"<?xml version=""1.0""?>\n<Clock xmlns:dt=""urn:schemas-microsoft-com:datatypes""><Description dt:dt=""string"">E-Prime Primary Realtime Clock</Description><StartTime><Timestamp dt:dt=""int"">0</Timestamp><DateUtc dt:dt=""string"">2009-10-03T20:44:53Z</DateUtc></StartTime><FrequencyChanges><FrequencyChange><Frequency dt:dt=""r8"">3591050000</Frequency><Timestamp dt:dt=""r8"">513347699083671</Timestamp><Current dt:dt=""r8"">0</Current><DateUtc dt:dt=""string"">1969-12-31T18:46:40Z</DateUtc></FrequencyChange></FrequencyChanges></Clock>\n",59.863,1,1013520345,10/3/09,13:44:53,1,1,1,1,76063,1,2475,1,0,1,1,1,AdditionProc,List1,6 + 4 = 10,complex,1addition_060418_jma,4017,2,"<?xml version=""1.0""?>\n<Clock xmlns:dt=""urn:schemas-microsoft-com:datatypes""><Description dt:dt=""string"">E-Prime Primary Realtime Clock</Description><StartTime><Timestamp dt:dt=""int"">0</Timestamp><DateUtc dt:dt=""string"">2009-10-03T20:44:53Z</DateUtc></StartTime><FrequencyChanges><FrequencyChange><Frequency dt:dt=""r8"">3591050000</Frequency><Timestamp dt:dt=""r8"">513347699083671</Timestamp><Current dt:dt=""r8"">0</Current><DateUtc dt:dt=""string"">1969-12-31T18:46:40Z</DateUtc></FrequencyChange></FrequencyChanges></Clock>\n",59.863,1,1013520345,10/3/09,13:44:53,2,1,1,1,81592,1,1334,2,2500,2,1,2,AdditionProc,List1,4 + 8 = 12,complex,1addition_060418_jma,4017,2,"<?xml version=""1.0""?>\n<Clock xmlns:dt=""urn:schemas-microsoft-com:datatypes""><Description dt:dt=""string"">E-Prime Primary Realtime Clock</Description><StartTime><Timestamp dt:dt=""int"">0</Timestamp><DateUtc dt:dt=""string"">2009-10-03T20:44:53Z</DateUtc></StartTime><FrequencyChanges><FrequencyChange><Frequency dt:dt=""r8"">3591050000</Frequency><Timestamp dt:dt=""r8"">513347699083671</Timestamp><Current dt:dt=""r8"">0</Current><DateUtc dt:dt=""string"">1969-12-31T18:46:40Z</DateUtc></FrequencyChange></FrequencyChanges></Clock>\n",59.863,1,1013520345,10/3/09,13:44:53,3,1,0,1,89610,2,1824,3,2500,3,1,3,AdditionProc,List1,4 + 1 = 5,simple,0addition_060418_jma,4017,2,"<?xml version=""1.0""?>\n<Clock xmlns:dt=""urn:schemas-microsoft-com:datatypes""><Description dt:dt=""string"">E-Prime Primary Realtime Clock</Description><StartTime><Timestamp dt:dt=""int"">0</Timestamp><DateUtc dt:dt=""string"">2009-10-03T20:44:53Z</DateUtc></StartTime><FrequencyChanges><FrequencyChange><Frequency dt:dt=""r8"">3591050000</Frequency><Timestamp dt:dt=""r8"">513347699083671</Timestamp><Current dt:dt=""r8"">0</Current><DateUtc dt:dt=""string"">1969-12-31T18:46:40Z</DateUtc></FrequencyChange></FrequencyChanges></Clock>\n",59.863,1,1013520345,10/3/09,13:44:53,4,2,1,2,97629,2,1924,4,3500,4,1,4,AdditionProc,List1,1 + 3 = 3,simple,1addition_060418_jma,4017,2,"<?xml version=""1.0""?>\n<Clock xmlns:dt=""urn:schemas-microsoft-com:datatypes""><Description dt:dt=""string"">E-Prime Primary Realtime Clock</Description><StartTime><Timestamp dt:dt=""int"">0</Timestamp><DateUtc dt:dt=""string"">2009-10-03T20:44:53Z</DateUtc></StartTime><FrequencyChanges><FrequencyChange><Frequency dt:dt=""r8"">3591050000</Frequency><Timestamp dt:dt=""r8"">513347699083671</Timestamp><Current dt:dt=""r8"">0</Current><DateUtc dt:dt=""string"">1969-12-31T18:46:40Z</DateUtc></FrequencyChange></FrequencyChanges></Clock>\n",59.863,1,1013520345,10/3/09,13:44:53,5,1,1,1,106649,1,3363,5,0,5,1,5,AdditionProc,List1,9 + 2 = 11,complex,1addition_060418_jma,4017,2,"<?xml version=""1.0""?>\n<Clock xmlns:dt=""urn:schemas-microsoft-com:datatypes""><Description dt:dt=""string"">E-Prime Primary Realtime Clock</Description><StartTime><Timestamp dt:dt=""int"">0</Timestamp><DateUtc dt:dt=""string"">2009-10-03T20:44:53Z</DateUtc></StartTime><FrequencyChanges><FrequencyChange><Frequency dt:dt=""r8"">3591050000</Frequency><Timestamp dt:dt=""r8"">513347699083671</Timestamp><Current dt:dt=""r8"">0</Current><DateUtc dt:dt=""string"">1969-12-31T18:46:40Z</DateUtc></FrequencyChange></FrequencyChanges></Clock>\n",59.863,1,1013520345,10/3/09,13:44:53,6,2,1,2,112179,2,2358,6,0,6,1,6,AdditionProc,List1,1 + 8 = 7,simple,1addition_060418_jma,4017,2,"<?xml version=""1.0""?>\n<Clock xmlns:dt=""urn:schemas-microsoft-com:datatypes""><Description dt:dt=""string"">E-Prime Primary Realtime Clock</Description><StartTime><Timestamp dt:dt=""int"">0</Timestamp><DateUtc dt:dt=""string"">2009-10-03T20:44:53Z</DateUtc></StartTime><FrequencyChanges><FrequencyChange><Frequency dt:dt=""r8"">3591050000</Frequency><Timestamp dt:dt=""r8"">513347699083671</Timestamp><Current dt:dt=""r8"">0</Current><DateUtc dt:dt=""string"">1969-12-31T18:46:40Z</DateUtc></FrequencyChange></FrequencyChanges></Clock>\n",59.863,1,1013520345,10/3/09,13:44:53,7,1,1,1,117708,1,1732,7,3500,7,1,7,AdditionProc,List1,1 + 3 = 4,simple,1addition_060418_jma,4017,2,"<?xml version=""1.0""?>\n<Clock xmlns:dt=""urn:schemas-microsoft-com:datatypes""><Description dt:dt=""string"">E-Prime Primary Realtime Clock</Description><StartTime><Timestamp dt:dt=""int"">0</Timestamp><DateUtc dt:dt=""string"">2009-10-03T20:44:53Z</DateUtc></StartTime><FrequencyChanges><FrequencyChange><Frequency dt:dt=""r8"">3591050000</Frequency><Timestamp dt:dt=""r8"">513347699083671</Timestamp><Current dt:dt=""r8"">0</Current><DateUtc dt:dt=""string"">1969-12-31T18:46:40Z</DateUtc></FrequencyChange></FrequencyChanges></Clock>\n",59.863,1,1013520345,10/3/09,13:44:53,8,2,1,2,126729,2,1868,8,0,8,1,8,AdditionProc,List1,9 + 1 = 11,simple,1addition_060418_jma,4017,2,"<?xml version=""1.0""?>\n<Clock xmlns:dt=""urn:schemas-microsoft-com:datatypes""><Description dt:dt=""string"">E-Prime Primary Realtime Clock</Description><StartTime><Timestamp dt:dt=""int"">0</Timestamp><DateUtc dt:dt=""string"">2009-10-03T20:44:53Z</DateUtc></StartTime><FrequencyChanges><FrequencyChange><Frequency dt:dt=""r8"">3591050000</Frequency><Timestamp dt:dt=""r8"">513347699083671</Timestamp><Current dt:dt=""r8"">0</Current><DateUtc dt:dt=""string"">1969-12-31T18:46:40Z</DateUtc></FrequencyChange></FrequencyChanges></Clock>\n",59.863,1,1013520345,10/3/09,13:44:53,9,1,1,1,132258,1,1313,9,0,9,1,9,AdditionProc,List1,6 + 1 = 7,simple,1addition_060418_jma,4017,2,"<?xml version=""1.0""?>\n<Clock xmlns:dt=""urn:schemas-microsoft-com:datatypes""><Description dt:dt=""string"">E-Prime Primary Realtime Clock</Description><StartTime><Timestamp dt:dt=""int"">0</Timestamp><DateUtc dt:dt=""string"">2009-10-03T20:44:53Z</DateUtc></StartTime><FrequencyChanges><FrequencyChange><Frequency dt:dt=""r8"">3591050000</Frequency><Timestamp dt:dt=""r8"">513347699083671</Timestamp><Current dt:dt=""r8"">0</Current><DateUtc dt:dt=""string"">1969-12-31T18:46:40Z</DateUtc></FrequencyChange></FrequencyChanges></Clock>\n",59.863,1,1013520345,10/3/09,13:44:53,10,1,1,1,137787,1,1617,10,2500,10,1,10,AdditionProc,List1,3 + 1 = 4,simple,1addition_060418_jma,4017,2,"<?xml version=""1.0""?>\n<Clock xmlns:dt=""urn:schemas-microsoft-com:datatypes""><Description dt:dt=""string"">E-Prime Primary Realtime Clock</Description><StartTime><Timestamp dt:dt=""int"">0</Timestamp><DateUtc dt:dt=""string"">2009-10-03T20:44:53Z</DateUtc></StartTime><FrequencyChanges><FrequencyChange><Frequency dt:dt=""r8"">3591050000</Frequency><Timestamp dt:dt=""r8"">513347699083671</Timestamp><Current dt:dt=""r8"">0</Current><DateUtc dt:dt=""string"">1969-12-31T18:46:40Z</DateUtc></FrequencyChange></FrequencyChanges></Clock>\n",59.863,1,1013520345,10/3/09,13:44:53,11,2,1,2,145806,2,1322,11,2500,11,1,11,AdditionProc,List1,1 + 6 = 5,simple,1addition_060418_jma,4017,2,"<?xml version=""1.0""?>\n<Clock xmlns:dt=""urn:schemas-microsoft-com:datatypes""><Description dt:dt=""string"">E-Prime Primary Realtime Clock</Description><StartTime><Timestamp dt:dt=""int"">0</Timestamp><DateUtc dt:dt=""string"">2009-10-03T20:44:53Z</DateUtc></StartTime><FrequencyChanges><FrequencyChange><Frequency dt:dt=""r8"">3591050000</Frequency><Timestamp dt:dt=""r8"">513347699083671</Timestamp><Current dt:dt=""r8"">0</Current><DateUtc dt:dt=""string"">1969-12-31T18:46:40Z</DateUtc></FrequencyChange></FrequencyChanges></Clock>\n",59.863,1,1013520345,10/3/09,13:44:53,12,2,1,2,153824,2,2217,12,0,12,1,12,AdditionProc,List1,5 + 6 = 10,complex,1addition_060418_jma,4017,2,"<?xml version=""1.0""?>\n<Clock xmlns:dt=""urn:schemas-microsoft-com:datatypes""><Description dt:dt=""string"">E-Prime Primary Realtime Clock</Description><StartTime><Timestamp dt:dt=""int"">0</Timestamp><DateUtc dt:dt=""string"">2009-10-03T20:44:53Z</DateUtc></StartTime><FrequencyChanges><FrequencyChange><Frequency dt:dt=""r8"">3591050000</Frequency><Timestamp dt:dt=""r8"">513347699083671</Timestamp><Current dt:dt=""r8"">0</Current><DateUtc dt:dt=""string"">1969-12-31T18:46:40Z</DateUtc></FrequencyChange></FrequencyChanges></Clock>\n",59.863,1,1013520345,10/3/09,13:44:53,13,2,0,2,159353,1,2632,13,2500,13,1,13,AdditionProc,List1,2 + 6 = 7,complex,0addition_060418_jma,4017,2,"<?xml version=""1.0""?>\n<Clock xmlns:dt=""urn:schemas-microsoft-com:datatypes""><Description dt:dt=""string"">E-Prime Primary Realtime Clock</Description><StartTime><Timestamp dt:dt=""int"">0</Timestamp><DateUtc dt:dt=""string"">2009-10-03T20:44:53Z</DateUtc></StartTime><FrequencyChanges><FrequencyChange><Frequency dt:dt=""r8"">3591050000</Frequency><Timestamp dt:dt=""r8"">513347699083671</Timestamp><Current dt:dt=""r8"">0</Current><DateUtc dt:dt=""string"">1969-12-31T18:46:40Z</DateUtc></FrequencyChange></FrequencyChanges></Clock>\n",59.863,1,1013520345,10/3/09,13:44:53,14,2,1,2,167371,2,2354,14,3500,14,1,14,AdditionProc,List1,6 + 1 = 5,simple,1addition_060418_jma,4017,2,"<?xml version=""1.0""?>\n<Clock xmlns:dt=""urn:schemas-microsoft-com:datatypes""><Description dt:dt=""string"">E-Prime Primary Realtime Clock</Description><StartTime><Timestamp dt:dt=""int"">0</Timestamp><DateUtc dt:dt=""string"">2009-10-03T20:44:53Z</DateUtc></StartTime><FrequencyChanges><FrequencyChange><Frequency dt:dt=""r8"">3591050000</Frequency><Timestamp dt:dt=""r8"">513347699083671</Timestamp><Current dt:dt=""r8"">0</Current><DateUtc dt:dt=""string"">1969-12-31T18:46:40Z</DateUtc></FrequencyChange></FrequencyChanges></Clock>\n",59.863,1,1013520345,10/3/09,13:44:53,15,2,0,2,176392,1,2258,15,3500,15,1,15,AdditionProc,List1,5 + 4 = 8,complex,0addition_060418_jma,4017,2,"<?xml version=""1.0""?>\n<Clock xmlns:dt=""urn:schemas-microsoft-com:datatypes""><Description dt:dt=""string"">E-Prime Primary Realtime Clock</Description><StartTime><Timestamp dt:dt=""int"">0</Timestamp><DateUtc dt:dt=""string"">2009-10-03T20:44:53Z</DateUtc></StartTime><FrequencyChanges><FrequencyChange><Frequency dt:dt=""r8"">3591050000</Frequency><Timestamp dt:dt=""r8"">513347699083671</Timestamp><Current dt:dt=""r8"">0</Current><DateUtc dt:dt=""string"">1969-12-31T18:46:40Z</DateUtc></FrequencyChange></FrequencyChanges></Clock>\n",59.863,1,1013520345,10/3/09,13:44:53,16,1,1,1,185413,1,1410,16,3500,16,1,16,AdditionProc,List1,3 + 4 = 7,complex,1addition_060418_jma,4017,2,"<?xml version=""1.0""?>\n<Clock xmlns:dt=""urn:schemas-microsoft-com:datatypes""><Description dt:dt=""string"">E-Prime Primary Realtime Clock</Description><StartTime><Timestamp dt:dt=""int"">0</Timestamp><DateUtc dt:dt=""string"">2009-10-03T20:44:53Z</DateUtc></StartTime><FrequencyChanges><FrequencyChange><Frequency dt:dt=""r8"">3591050000</Frequency><Timestamp dt:dt=""r8"">513347699083671</Timestamp><Current dt:dt=""r8"">0</Current><DateUtc dt:dt=""string"">1969-12-31T18:46:40Z</DateUtc></FrequencyChange></FrequencyChanges></Clock>\n",59.863,1,1013520345,10/3/09,13:44:53,17,1,1,1,194433,1,2072,17,0,17,1,17,AdditionProc,List1,6 + 1 = 7,simple,1addition_060418_jma,4017,2,"<?xml version=""1.0""?>\n<Clock xmlns:dt=""urn:schemas-microsoft-com:datatypes""><Description dt:dt=""string"">E-Prime Primary Realtime Clock</Description><StartTime><Timestamp dt:dt=""int"">0</Timestamp><DateUtc dt:dt=""string"">2009-10-03T20:44:53Z</DateUtc></StartTime><FrequencyChanges><FrequencyChange><Frequency dt:dt=""r8"">3591050000</Frequency><Timestamp dt:dt=""r8"">513347699083671</Timestamp><Current dt:dt=""r8"">0</Current><DateUtc dt:dt=""string"">1969-12-31T18:46:40Z</DateUtc></FrequencyChange></FrequencyChanges></Clock>\n",59.863,1,1013520345,10/3/09,13:44:53,18,2,1,2,199963,2,1244,18,3500,18,1,18,AdditionProc,List1,1 + 4 = 6,simple,1addition_060418_jma,4017,2,"<?xml version=""1.0""?>\n<Clock xmlns:dt=""urn:schemas-microsoft-com:datatypes""><Description dt:dt=""string"">E-Prime Primary Realtime Clock</Description><StartTime><Timestamp dt:dt=""int"">0</Timestamp><DateUtc dt:dt=""string"">2009-10-03T20:44:53Z</DateUtc></StartTime><FrequencyChanges><FrequencyChange><Frequency dt:dt=""r8"">3591050000</Frequency><Timestamp dt:dt=""r8"">513347699083671</Timestamp><Current dt:dt=""r8"">0</Current><DateUtc dt:dt=""string"">1969-12-31T18:46:40Z</DateUtc></FrequencyChange></FrequencyChanges></Clock>\n",59.863,1,1013520345,10/3/09,13:44:53,19,1,1,1,208983,1,1287,19,2500,19,1,19,AdditionProc,List1,8 + 4 = 12,complex,1addition_060418_jma,4017,2,"<?xml version=""1.0""?>\n<Clock xmlns:dt=""urn:schemas-microsoft-com:datatypes""><Description dt:dt=""string"">E-Prime Primary Realtime Clock</Description><StartTime><Timestamp dt:dt=""int"">0</Timestamp><DateUtc dt:dt=""string"">2009-10-03T20:44:53Z</DateUtc></StartTime><FrequencyChanges><FrequencyChange><Frequency dt:dt=""r8"">3591050000</Frequency><Timestamp dt:dt=""r8"">513347699083671</Timestamp><Current dt:dt=""r8"">0</Current><DateUtc dt:dt=""string"">1969-12-31T18:46:40Z</DateUtc></FrequencyChange></FrequencyChanges></Clock>\n",59.863,1,1013520345,10/3/09,13:44:53,20,1,1,1,217002,1,1275,20,0,20,1,20,AdditionProc,List1,1 + 9 = 10,simple,1addition_060418_jma,4017,2,"<?xml version=""1.0""?>\n<Clock xmlns:dt=""urn:schemas-microsoft-com:datatypes""><Description dt:dt=""string"">E-Prime Primary Realtime Clock</Description><StartTime><Timestamp dt:dt=""int"">0</Timestamp><DateUtc dt:dt=""string"">2009-10-03T20:44:53Z</DateUtc></StartTime><FrequencyChanges><FrequencyChange><Frequency dt:dt=""r8"">3591050000</Frequency><Timestamp dt:dt=""r8"">513347699083671</Timestamp><Current dt:dt=""r8"">0</Current><DateUtc dt:dt=""string"">1969-12-31T18:46:40Z</DateUtc></FrequencyChange></FrequencyChanges></Clock>\n",59.863,1,1013520345,10/3/09,13:44:53,21,1,1,1,222531,1,2792,21,2500,21,1,21,AdditionProc,List1,8 + 2 = 10,complex,1addition_060418_jma,4017,2,"<?xml version=""1.0""?>\n<Clock xmlns:dt=""urn:schemas-microsoft-com:datatypes""><Description dt:dt=""string"">E-Prime Primary Realtime Clock</Description><StartTime><Timestamp dt:dt=""int"">0</Timestamp><DateUtc dt:dt=""string"">2009-10-03T20:44:53Z</DateUtc></StartTime><FrequencyChanges><FrequencyChange><Frequency dt:dt=""r8"">3591050000</Frequency><Timestamp dt:dt=""r8"">513347699083671</Timestamp><Current dt:dt=""r8"">0</Current><DateUtc dt:dt=""string"">1969-12-31T18:46:40Z</DateUtc></FrequencyChange></FrequencyChanges></Clock>\n",59.863,1,1013520345,10/3/09,13:44:53,22,2,1,2,230549,2,1785,22,0,22,1,22,AdditionProc,List1,2 + 7 = 8,complex,1addition_060418_jma,4017,2,"<?xml version=""1.0""?>\n<Clock xmlns:dt=""urn:schemas-microsoft-com:datatypes""><Description dt:dt=""string"">E-Prime Primary Realtime Clock</Description><StartTime><Timestamp dt:dt=""int"">0</Timestamp><DateUtc dt:dt=""string"">2009-10-03T20:44:53Z</DateUtc></StartTime><FrequencyChanges><FrequencyChange><Frequency dt:dt=""r8"">3591050000</Frequency><Timestamp dt:dt=""r8"">513347699083671</Timestamp><Current dt:dt=""r8"">0</Current><DateUtc dt:dt=""string"">1969-12-31T18:46:40Z</DateUtc></FrequencyChange></FrequencyChanges></Clock>\n",59.863,1,1013520345,10/3/09,13:44:53,23,2,1,2,236078,2,1765,23,0,23,1,23,AdditionProc,List1,4 + 5 = 7,complex,1addition_060418_jma,4017,2,"<?xml version=""1.0""?>\n<Clock xmlns:dt=""urn:schemas-microsoft-com:datatypes""><Description dt:dt=""string"">E-Prime Primary Realtime Clock</Description><StartTime><Timestamp dt:dt=""int"">0</Timestamp><DateUtc dt:dt=""string"">2009-10-03T20:44:53Z</DateUtc></StartTime><FrequencyChanges><FrequencyChange><Frequency dt:dt=""r8"">3591050000</Frequency><Timestamp dt:dt=""r8"">513347699083671</Timestamp><Current dt:dt=""r8"">0</Current><DateUtc dt:dt=""string"">1969-12-31T18:46:40Z</DateUtc></FrequencyChange></FrequencyChanges></Clock>\n",59.863,1,1013520345,10/3/09,13:44:53,24,1,1,1,241608,1,1450,24,0,24,1,24,AdditionProc,List1,1 + 8 = 9,simple,1addition_060418_jma,4017,2,"<?xml version=""1.0""?>\n<Clock xmlns:dt=""urn:schemas-microsoft-com:datatypes""><Description dt:dt=""string"">E-Prime Primary Realtime Clock</Description><StartTime><Timestamp dt:dt=""int"">0</Timestamp><DateUtc dt:dt=""string"">2009-10-03T20:44:53Z</DateUtc></StartTime><FrequencyChanges><FrequencyChange><Frequency dt:dt=""r8"">3591050000</Frequency><Timestamp dt:dt=""r8"">513347699083671</Timestamp><Current dt:dt=""r8"">0</Current><DateUtc dt:dt=""string"">1969-12-31T18:46:40Z</DateUtc></FrequencyChange></FrequencyChanges></Clock>\n",59.863,1,1013520345,10/3/09,13:44:53,25,2,1,2,247137,2,2210,25,2500,25,1,25,AdditionProc,List1,4 + 6 = 11,complex,1addition_060418_jma,4017,2,"<?xml version=""1.0""?>\n<Clock xmlns:dt=""urn:schemas-microsoft-com:datatypes""><Description dt:dt=""string"">E-Prime Primary Realtime Clock</Description><StartTime><Timestamp dt:dt=""int"">0</Timestamp><DateUtc dt:dt=""string"">2009-10-03T20:44:53Z</DateUtc></StartTime><FrequencyChanges><FrequencyChange><Frequency dt:dt=""r8"">3591050000</Frequency><Timestamp dt:dt=""r8"">513347699083671</Timestamp><Current dt:dt=""r8"">0</Current><DateUtc dt:dt=""string"">1969-12-31T18:46:40Z</DateUtc></FrequencyChange></FrequencyChanges></Clock>\n",59.863,1,1013520345,10/3/09,13:44:53,26,2,1,2,255155,2,1868,26,3500,26,1,26,AdditionProc,List1,3 + 5 = 10,complex,1addition_060418_jma,4017,2,"<?xml version=""1.0""?>\n<Clock xmlns:dt=""urn:schemas-microsoft-com:datatypes""><Description dt:dt=""string"">E-Prime Primary Realtime Clock</Description><StartTime><Timestamp dt:dt=""int"">0</Timestamp><DateUtc dt:dt=""string"">2009-10-03T20:44:53Z</DateUtc></StartTime><FrequencyChanges><FrequencyChange><Frequency dt:dt=""r8"">3591050000</Frequency><Timestamp dt:dt=""r8"">513347699083671</Timestamp><Current dt:dt=""r8"">0</Current><DateUtc dt:dt=""string"">1969-12-31T18:46:40Z</DateUtc></FrequencyChange></FrequencyChanges></Clock>\n",59.863,1,1013520345,10/3/09,13:44:53,27,2,1,2,264176,2,1182,27,2500,27,1,27,AdditionProc,List1,8 + 1 = 11,simple,1addition_060418_jma,4017,2,"<?xml version=""1.0""?>\n<Clock xmlns:dt=""urn:schemas-microsoft-com:datatypes""><Description dt:dt=""string"">E-Prime Primary Realtime Clock</Description><StartTime><Timestamp dt:dt=""int"">0</Timestamp><DateUtc dt:dt=""string"">2009-10-03T20:44:53Z</DateUtc></StartTime><FrequencyChanges><FrequencyChange><Frequency dt:dt=""r8"">3591050000</Frequency><Timestamp dt:dt=""r8"">513347699083671</Timestamp><Current dt:dt=""r8"">0</Current><DateUtc dt:dt=""string"">1969-12-31T18:46:40Z</DateUtc></FrequencyChange></FrequencyChanges></Clock>\n",59.863,1,1013520345,10/3/09,13:44:53,28,1,1,1,272194,1,1200,28,0,28,1,28,AdditionProc,List1,1 + 4 = 5,simple,1addition_060418_jma,4017,2,"<?xml version=""1.0""?>\n<Clock xmlns:dt=""urn:schemas-microsoft-com:datatypes""><Description dt:dt=""string"">E-Prime Primary Realtime Clock</Description><StartTime><Timestamp dt:dt=""int"">0</Timestamp><DateUtc dt:dt=""string"">2009-10-03T20:44:53Z</DateUtc></StartTime><FrequencyChanges><FrequencyChange><Frequency dt:dt=""r8"">3591050000</Frequency><Timestamp dt:dt=""r8"">513347699083671</Timestamp><Current dt:dt=""r8"">0</Current><DateUtc dt:dt=""string"">1969-12-31T18:46:40Z</DateUtc></FrequencyChange></FrequencyChanges></Clock>\n",59.863,1,1013520345,10/3/09,13:44:53,29,1,1,1,277724,1,1696,29,0,29,1,29,AdditionProc,List1,5 + 1 = 6,simple,1addition_060418_jma,4017,2,"<?xml version=""1.0""?>\n<Clock xmlns:dt=""urn:schemas-microsoft-com:datatypes""><Description dt:dt=""string"">E-Prime Primary Realtime Clock</Description><StartTime><Timestamp dt:dt=""int"">0</Timestamp><DateUtc dt:dt=""string"">2009-10-03T20:44:53Z</DateUtc></StartTime><FrequencyChanges><FrequencyChange><Frequency dt:dt=""r8"">3591050000</Frequency><Timestamp dt:dt=""r8"">513347699083671</Timestamp><Current dt:dt=""r8"">0</Current><DateUtc dt:dt=""string"">1969-12-31T18:46:40Z</DateUtc></FrequencyChange></FrequencyChanges></Clock>\n",59.863,1,1013520345,10/3/09,13:44:53,30,2,1,2,283253,2,1306,30,2500,30,1,30,AdditionProc,List1,3 + 2 = 4,complex,1addition_060418_jma,4017,2,"<?xml version=""1.0""?>\n<Clock xmlns:dt=""urn:schemas-microsoft-com:datatypes""><Description dt:dt=""string"">E-Prime Primary Realtime Clock</Description><StartTime><Timestamp dt:dt=""int"">0</Timestamp><DateUtc dt:dt=""string"">2009-10-03T20:44:53Z</DateUtc></StartTime><FrequencyChanges><FrequencyChange><Frequency dt:dt=""r8"">3591050000</Frequency><Timestamp dt:dt=""r8"">513347699083671</Timestamp><Current dt:dt=""r8"">0</Current><DateUtc dt:dt=""string"">1969-12-31T18:46:40Z</DateUtc></FrequencyChange></FrequencyChanges></Clock>\n",59.863,1,1013520345,10/3/09,13:44:53,31,1,1,1,291271,1,2865,31,0,31,1,31,AdditionProc,List1,5 + 7 = 12,complex,1addition_060418_jma,4017,2,"<?xml version=""1.0""?>\n<Clock xmlns:dt=""urn:schemas-microsoft-com:datatypes""><Description dt:dt=""string"">E-Prime Primary Realtime Clock</Description><StartTime><Timestamp dt:dt=""int"">0</Timestamp><DateUtc dt:dt=""string"">2009-10-03T20:44:53Z</DateUtc></StartTime><FrequencyChanges><FrequencyChange><Frequency dt:dt=""r8"">3591050000</Frequency><Timestamp dt:dt=""r8"">513347699083671</Timestamp><Current dt:dt=""r8"">0</Current><DateUtc dt:dt=""string"">1969-12-31T18:46:40Z</DateUtc></FrequencyChange></FrequencyChanges></Clock>\n",59.863,1,1013520345,10/3/09,13:44:53,32,2,1,2,296801,2,2217,32,0,32,1,32,AdditionProc,List1,4 + 2 = 7,complex,1addition_060418_jma,4017,2,"<?xml version=""1.0""?>\n<Clock xmlns:dt=""urn:schemas-microsoft-com:datatypes""><Description dt:dt=""string"">E-Prime Primary Realtime Clock</Description><StartTime><Timestamp dt:dt=""int"">0</Timestamp><DateUtc dt:dt=""string"">2009-10-03T20:44:53Z</DateUtc></StartTime><FrequencyChanges><FrequencyChange><Frequency dt:dt=""r8"">3591050000</Frequency><Timestamp dt:dt=""r8"">513347699083671</Timestamp><Current dt:dt=""r8"">0</Current><DateUtc dt:dt=""string"">1969-12-31T18:46:40Z</DateUtc></FrequencyChange></FrequencyChanges></Clock>\n",59.863,1,1013520345,10/3/09,13:44:53,33,2,1,2,302330,2,2112,33,2500,33,1,33,AdditionProc,List1,4 + 5 = 7,complex,1addition_060418_jma,4017,2,"<?xml version=""1.0""?>\n<Clock xmlns:dt=""urn:schemas-microsoft-com:datatypes""><Description dt:dt=""string"">E-Prime Primary Realtime Clock</Description><StartTime><Timestamp dt:dt=""int"">0</Timestamp><DateUtc dt:dt=""string"">2009-10-03T20:44:53Z</DateUtc></StartTime><FrequencyChanges><FrequencyChange><Frequency dt:dt=""r8"">3591050000</Frequency><Timestamp dt:dt=""r8"">513347699083671</Timestamp><Current dt:dt=""r8"">0</Current><DateUtc dt:dt=""string"">1969-12-31T18:46:40Z</DateUtc></FrequencyChange></FrequencyChanges></Clock>\n",59.863,1,1013520345,10/3/09,13:44:53,34,1,0,1,310348,2,2597,34,3500,34,1,34,AdditionProc,List1,5 + 1 = 6,simple,0addition_060418_jma,4017,2,"<?xml version=""1.0""?>\n<Clock xmlns:dt=""urn:schemas-microsoft-com:datatypes""><Description dt:dt=""string"">E-Prime Primary Realtime Clock</Description><StartTime><Timestamp dt:dt=""int"">0</Timestamp><DateUtc dt:dt=""string"">2009-10-03T20:44:53Z</DateUtc></StartTime><FrequencyChanges><FrequencyChange><Frequency dt:dt=""r8"">3591050000</Frequency><Timestamp dt:dt=""r8"">513347699083671</Timestamp><Current dt:dt=""r8"">0</Current><DateUtc dt:dt=""string"">1969-12-31T18:46:40Z</DateUtc></FrequencyChange></FrequencyChanges></Clock>\n",59.863,1,1013520345,10/3/09,13:44:53,35,2,1,2,319369,2,1458,35,3500,35,1,35,AdditionProc,List1,1 + 3 = 5,simple,1addition_060418_jma,4017,2,"<?xml version=""1.0""?>\n<Clock xmlns:dt=""urn:schemas-microsoft-com:datatypes""><Description dt:dt=""string"">E-Prime Primary Realtime Clock</Description><StartTime><Timestamp dt:dt=""int"">0</Timestamp><DateUtc dt:dt=""string"">2009-10-03T20:44:53Z</DateUtc></StartTime><FrequencyChanges><FrequencyChange><Frequency dt:dt=""r8"">3591050000</Frequency><Timestamp dt:dt=""r8"">513347699083671</Timestamp><Current dt:dt=""r8"">0</Current><DateUtc dt:dt=""string"">1969-12-31T18:46:40Z</DateUtc></FrequencyChange></FrequencyChanges></Clock>\n",59.863,1,1013520345,10/3/09,13:44:53,36,2,1,2,328389,2,1204,36,2500,36,1,36,AdditionProc,List1,1 + 2 = 1,simple,1addition_060418_jma,4017,2,"<?xml version=""1.0""?>\n<Clock xmlns:dt=""urn:schemas-microsoft-com:datatypes""><Description dt:dt=""string"">E-Prime Primary Realtime Clock</Description><StartTime><Timestamp dt:dt=""int"">0</Timestamp><DateUtc dt:dt=""string"">2009-10-03T20:44:53Z</DateUtc></StartTime><FrequencyChanges><FrequencyChange><Frequency dt:dt=""r8"">3591050000</Frequency><Timestamp dt:dt=""r8"">513347699083671</Timestamp><Current dt:dt=""r8"">0</Current><DateUtc dt:dt=""string"">1969-12-31T18:46:40Z</DateUtc></FrequencyChange></FrequencyChanges></Clock>\n",59.863,1,1013520345,10/3/09,13:44:53,37,1,0,1,336408,2,2224,37,0,37,1,37,AdditionProc,List1,4 + 7 = 11,complex,0addition_060418_jma,4017,2,"<?xml version=""1.0""?>\n<Clock xmlns:dt=""urn:schemas-microsoft-com:datatypes""><Description dt:dt=""string"">E-Prime Primary Realtime Clock</Description><StartTime><Timestamp dt:dt=""int"">0</Timestamp><DateUtc dt:dt=""string"">2009-10-03T20:44:53Z</DateUtc></StartTime><FrequencyChanges><FrequencyChange><Frequency dt:dt=""r8"">3591050000</Frequency><Timestamp dt:dt=""r8"">513347699083671</Timestamp><Current dt:dt=""r8"">0</Current><DateUtc dt:dt=""string"">1969-12-31T18:46:40Z</DateUtc></FrequencyChange></FrequencyChanges></Clock>\n",59.863,1,1013520345,10/3/09,13:44:53,38,2,0,2,341937,1,2833,38,3500,38,1,38,AdditionProc,List1,3 + 8 = 12,complex,0addition_060418_jma,4017,2,"<?xml version=""1.0""?>\n<Clock xmlns:dt=""urn:schemas-microsoft-com:datatypes""><Description dt:dt=""string"">E-Prime Primary Realtime Clock</Description><StartTime><Timestamp dt:dt=""int"">0</Timestamp><DateUtc dt:dt=""string"">2009-10-03T20:44:53Z</DateUtc></StartTime><FrequencyChanges><FrequencyChange><Frequency dt:dt=""r8"">3591050000</Frequency><Timestamp dt:dt=""r8"">513347699083671</Timestamp><Current dt:dt=""r8"">0</Current><DateUtc dt:dt=""string"">1969-12-31T18:46:40Z</DateUtc></FrequencyChange></FrequencyChanges></Clock>\n",59.863,1,1013520345,10/3/09,13:44:53,39,1,1,1,350958,1,1586,39,2500,39,1,39,AdditionProc,List1,1 + 7 = 8,simple,1addition_060418_jma,4017,2,"<?xml version=""1.0""?>\n<Clock xmlns:dt=""urn:schemas-microsoft-com:datatypes""><Description dt:dt=""string"">E-Prime Primary Realtime Clock</Description><StartTime><Timestamp dt:dt=""int"">0</Timestamp><DateUtc dt:dt=""string"">2009-10-03T20:44:53Z</DateUtc></StartTime><FrequencyChanges><FrequencyChange><Frequency dt:dt=""r8"">3591050000</Frequency><Timestamp dt:dt=""r8"">513347699083671</Timestamp><Current dt:dt=""r8"">0</Current><DateUtc dt:dt=""string"">1969-12-31T18:46:40Z</DateUtc></FrequencyChange></FrequencyChanges></Clock>\n",59.863,1,1013520345,10/3/09,13:44:53,40,2,1,2,358976,2,1733,40,2500,40,1,40,AdditionProc,List1,1 + 6 = 8,simple,1addition_060418_jma,4017,2,"<?xml version=""1.0""?>\n<Clock xmlns:dt=""urn:schemas-microsoft-com:datatypes""><Description dt:dt=""string"">E-Prime Primary Realtime Clock</Description><StartTime><Timestamp dt:dt=""int"">0</Timestamp><DateUtc dt:dt=""string"">2009-10-03T20:44:53Z</DateUtc></StartTime><FrequencyChanges><FrequencyChange><Frequency dt:dt=""r8"">3591050000</Frequency><Timestamp dt:dt=""r8"">513347699083671</Timestamp><Current dt:dt=""r8"">0</Current><DateUtc dt:dt=""string"">1969-12-31T18:46:40Z</DateUtc></FrequencyChange></FrequencyChanges></Clock>\n",59.863,1,1013520345,10/3/09,13:44:53,41,1,1,1,366994,1,1996,41,0,41,1,41,AdditionProc,List1,6 + 4 = 10,complex,1addition_060418_jma,4017,2,"<?xml version=""1.0""?>\n<Clock xmlns:dt=""urn:schemas-microsoft-com:datatypes""><Description dt:dt=""string"">E-Prime Primary Realtime Clock</Description><StartTime><Timestamp dt:dt=""int"">0</Timestamp><DateUtc dt:dt=""string"">2009-10-03T20:44:53Z</DateUtc></StartTime><FrequencyChanges><FrequencyChange><Frequency dt:dt=""r8"">3591050000</Frequency><Timestamp dt:dt=""r8"">513347699083671</Timestamp><Current dt:dt=""r8"">0</Current><DateUtc dt:dt=""string"">1969-12-31T18:46:40Z</DateUtc></FrequencyChange></FrequencyChanges></Clock>\n",59.863,1,1013520345,10/3/09,13:44:53,42,1,0,1,372524,2,1626,42,3500,42,1,42,AdditionProc,List1,7 + 4 = 11,complex,0addition_060418_jma,4017,2,"<?xml version=""1.0""?>\n<Clock xmlns:dt=""urn:schemas-microsoft-com:datatypes""><Description dt:dt=""string"">E-Prime Primary Realtime Clock</Description><StartTime><Timestamp dt:dt=""int"">0</Timestamp><DateUtc dt:dt=""string"">2009-10-03T20:44:53Z</DateUtc></StartTime><FrequencyChanges><FrequencyChange><Frequency dt:dt=""r8"">3591050000</Frequency><Timestamp dt:dt=""r8"">513347699083671</Timestamp><Current dt:dt=""r8"">0</Current><DateUtc dt:dt=""string"">1969-12-31T18:46:40Z</DateUtc></FrequencyChange></FrequencyChanges></Clock>\n",59.863,1,1013520345,10/3/09,13:44:53,43,1,1,1,381544,1,1045,43,0,43,1,43,AdditionProc,List1,1 + 6 = 7,simple,1addition_060418_jma,4017,2,"<?xml version=""1.0""?>\n<Clock xmlns:dt=""urn:schemas-microsoft-com:datatypes""><Description dt:dt=""string"">E-Prime Primary Realtime Clock</Description><StartTime><Timestamp dt:dt=""int"">0</Timestamp><DateUtc dt:dt=""string"">2009-10-03T20:44:53Z</DateUtc></StartTime><FrequencyChanges><FrequencyChange><Frequency dt:dt=""r8"">3591050000</Frequency><Timestamp dt:dt=""r8"">513347699083671</Timestamp><Current dt:dt=""r8"">0</Current><DateUtc dt:dt=""string"">1969-12-31T18:46:40Z</DateUtc></FrequencyChange></FrequencyChanges></Clock>\n",59.863,1,1013520345,10/3/09,13:44:53,44,2,1,2,387073,2,1328,44,2500,44,1,44,AdditionProc,List1,8 + 1 = 8,simple,1addition_060418_jma,4017,2,"<?xml version=""1.0""?>\n<Clock xmlns:dt=""urn:schemas-microsoft-com:datatypes""><Description dt:dt=""string"">E-Prime Primary Realtime Clock</Description><StartTime><Timestamp dt:dt=""int"">0</Timestamp><DateUtc dt:dt=""string"">2009-10-03T20:44:53Z</DateUtc></StartTime><FrequencyChanges><FrequencyChange><Frequency dt:dt=""r8"">3591050000</Frequency><Timestamp dt:dt=""r8"">513347699083671</Timestamp><Current dt:dt=""r8"">0</Current><DateUtc dt:dt=""string"">1969-12-31T18:46:40Z</DateUtc></FrequencyChange></FrequencyChanges></Clock>\n",59.863,1,1013520345,10/3/09,13:44:53,45,1,1,1,395092,1,1582,45,0,45,1,45,AdditionProc,List1,1 + 7 = 8,simple,1addition_060418_jma,4017,2,"<?xml version=""1.0""?>\n<Clock xmlns:dt=""urn:schemas-microsoft-com:datatypes""><Description dt:dt=""string"">E-Prime Primary Realtime Clock</Description><StartTime><Timestamp dt:dt=""int"">0</Timestamp><DateUtc dt:dt=""string"">2009-10-03T20:44:53Z</DateUtc></StartTime><FrequencyChanges><FrequencyChange><Frequency dt:dt=""r8"">3591050000</Frequency><Timestamp dt:dt=""r8"">513347699083671</Timestamp><Current dt:dt=""r8"">0</Current><DateUtc dt:dt=""string"">1969-12-31T18:46:40Z</DateUtc></FrequencyChange></FrequencyChanges></Clock>\n",59.863,1,1013520345,10/3/09,13:44:53,46,2,0,2,400621,1,85,46,2500,46,1,46,AdditionProc,List1,9 + 4 = 15,complex,0addition_060418_jma,4017,2,"<?xml version=""1.0""?>\n<Clock xmlns:dt=""urn:schemas-microsoft-com:datatypes""><Description dt:dt=""string"">E-Prime Primary Realtime Clock</Description><StartTime><Timestamp dt:dt=""int"">0</Timestamp><DateUtc dt:dt=""string"">2009-10-03T20:44:53Z</DateUtc></StartTime><FrequencyChanges><FrequencyChange><Frequency dt:dt=""r8"">3591050000</Frequency><Timestamp dt:dt=""r8"">513347699083671</Timestamp><Current dt:dt=""r8"">0</Current><DateUtc dt:dt=""string"">1969-12-31T18:46:40Z</DateUtc></FrequencyChange></FrequencyChanges></Clock>\n",59.863,1,1013520345,10/3/09,13:44:53,47,2,0,2,408639,1,2561,47,0,47,1,47,AdditionProc,List1,4 + 7 = 9,complex,0addition_060418_jma,4017,2,"<?xml version=""1.0""?>\n<Clock xmlns:dt=""urn:schemas-microsoft-com:datatypes""><Description dt:dt=""string"">E-Prime Primary Realtime Clock</Description><StartTime><Timestamp dt:dt=""int"">0</Timestamp><DateUtc dt:dt=""string"">2009-10-03T20:44:53Z</DateUtc></StartTime><FrequencyChanges><FrequencyChange><Frequency dt:dt=""r8"">3591050000</Frequency><Timestamp dt:dt=""r8"">513347699083671</Timestamp><Current dt:dt=""r8"">0</Current><DateUtc dt:dt=""string"">1969-12-31T18:46:40Z</DateUtc></FrequencyChange></FrequencyChanges></Clock>\n",59.863,1,1013520345,10/3/09,13:44:53,48,2,1,2,414169,2,344,48,3500,48,1,48,AdditionProc,List1,8 + 5 = 15,complex,1addition_060418_jma,4017,2,"<?xml version=""1.0""?>\n<Clock xmlns:dt=""urn:schemas-microsoft-com:datatypes""><Description dt:dt=""string"">E-Prime Primary Realtime Clock</Description><StartTime><Timestamp dt:dt=""int"">0</Timestamp><DateUtc dt:dt=""string"">2009-10-03T20:44:53Z</DateUtc></StartTime><FrequencyChanges><FrequencyChange><Frequency dt:dt=""r8"">3591050000</Frequency><Timestamp dt:dt=""r8"">513347699083671</Timestamp><Current dt:dt=""r8"">0</Current><DateUtc dt:dt=""string"">1969-12-31T18:46:40Z</DateUtc></FrequencyChange></FrequencyChanges></Clock>\n",59.863,1,1013520345,10/3/09,13:44:53,49,2,1,2,423189,2,3335,49,3500,49,1,49,AdditionProc,List1,5 + 8 = 15,complex,1addition_060418_jma,4017,2,"<?xml version=""1.0""?>\n<Clock xmlns:dt=""urn:schemas-microsoft-com:datatypes""><Description dt:dt=""string"">E-Prime Primary Realtime Clock</Description><StartTime><Timestamp dt:dt=""int"">0</Timestamp><DateUtc dt:dt=""string"">2009-10-03T20:44:53Z</DateUtc></StartTime><FrequencyChanges><FrequencyChange><Frequency dt:dt=""r8"">3591050000</Frequency><Timestamp dt:dt=""r8"">513347699083671</Timestamp><Current dt:dt=""r8"">0</Current><DateUtc dt:dt=""string"">1969-12-31T18:46:40Z</DateUtc></FrequencyChange></FrequencyChanges></Clock>\n",59.863,1,1013520345,10/3/09,13:44:53,50,2,1,2,432210,2,2384,50,3500,50,1,50,AdditionProc,List1,4 + 1 = 7,simple,1addition_060418_jma,4017,2,"<?xml version=""1.0""?>\n<Clock xmlns:dt=""urn:schemas-microsoft-com:datatypes""><Description dt:dt=""string"">E-Prime Primary Realtime Clock</Description><StartTime><Timestamp dt:dt=""int"">0</Timestamp><DateUtc dt:dt=""string"">2009-10-03T20:44:53Z</DateUtc></StartTime><FrequencyChanges><FrequencyChange><Frequency dt:dt=""r8"">3591050000</Frequency><Timestamp dt:dt=""r8"">513347699083671</Timestamp><Current dt:dt=""r8"">0</Current><DateUtc dt:dt=""string"">1969-12-31T18:46:40Z</DateUtc></FrequencyChange></FrequencyChanges></Clock>\n",59.863,1,1013520345,10/3/09,13:44:53,51,1,1,1,441231,1,861,51,3500,51,1,51,AdditionProc,List1,7 + 1 = 8,simple,1addition_060418_jma,4017,2,"<?xml version=""1.0""?>\n<Clock xmlns:dt=""urn:schemas-microsoft-com:datatypes""><Description dt:dt=""string"">E-Prime Primary Realtime Clock</Description><StartTime><Timestamp dt:dt=""int"">0</Timestamp><DateUtc dt:dt=""string"">2009-10-03T20:44:53Z</DateUtc></StartTime><FrequencyChanges><FrequencyChange><Frequency dt:dt=""r8"">3591050000</Frequency><Timestamp dt:dt=""r8"">513347699083671</Timestamp><Current dt:dt=""r8"">0</Current><DateUtc dt:dt=""string"">1969-12-31T18:46:40Z</DateUtc></FrequencyChange></FrequencyChanges></Clock>\n",59.863,1,1013520345,10/3/09,13:44:53,52,1,1,1,450251,1,2261,52,3500,52,1,52,AdditionProc,List1,3 + 6 = 9,complex,1addition_060418_jma,4020,26,"<?xml version=""1.0""?>\n<Clock xmlns:dt=""urn:schemas-microsoft-com:datatypes""><Description dt:dt=""string"">E-Prime Primary Realtime Clock</Description><StartTime><Timestamp dt:dt=""int"">0</Timestamp><DateUtc dt:dt=""string"">2009-11-22T19:28:23Z</DateUtc></StartTime><FrequencyChanges><FrequencyChange><Frequency dt:dt=""r8"">3591050000</Frequency><Timestamp dt:dt=""r8"">3.10049077516329E+15</Timestamp><Current dt:dt=""r8"">0</Current><DateUtc dt:dt=""string"">1969-12-31T16:00:00Z</DateUtc></FrequencyChange></FrequencyChanges></Clock>\n",59.863,1,1843039894,11/22/09,11:28:23,1,2,0,2,53689,3,1057,1,0,1,1,1,AdditionProc,List1,3 + 2 = 6,complex,0addition_060418_jma,4020,26,"<?xml version=""1.0""?>\n<Clock xmlns:dt=""urn:schemas-microsoft-com:datatypes""><Description dt:dt=""string"">E-Prime Primary Realtime Clock</Description><StartTime><Timestamp dt:dt=""int"">0</Timestamp><DateUtc dt:dt=""string"">2009-11-22T19:28:23Z</DateUtc></StartTime><FrequencyChanges><FrequencyChange><Frequency dt:dt=""r8"">3591050000</Frequency><Timestamp dt:dt=""r8"">3.10049077516329E+15</Timestamp><Current dt:dt=""r8"">0</Current><DateUtc dt:dt=""string"">1969-12-31T16:00:00Z</DateUtc></FrequencyChange></FrequencyChanges></Clock>\n",59.863,1,1843039894,11/22/09,11:28:23,2,2,0,2,59219,3,2530,2,2500,2,1,2,AdditionProc,List1,5 + 8 = 14,complex,0addition_060418_jma,4020,26,"<?xml version=""1.0""?>\n<Clock xmlns:dt=""urn:schemas-microsoft-com:datatypes""><Description dt:dt=""string"">E-Prime Primary Realtime Clock</Description><StartTime><Timestamp dt:dt=""int"">0</Timestamp><DateUtc dt:dt=""string"">2009-11-22T19:28:23Z</DateUtc></StartTime><FrequencyChanges><FrequencyChange><Frequency dt:dt=""r8"">3591050000</Frequency><Timestamp dt:dt=""r8"">3.10049077516329E+15</Timestamp><Current dt:dt=""r8"">0</Current><DateUtc dt:dt=""string"">1969-12-31T16:00:00Z</DateUtc></FrequencyChange></FrequencyChanges></Clock>\n",59.863,1,1843039894,11/22/09,11:28:23,3,2,0,2,67237,3,1592,3,2500,3,1,3,AdditionProc,List1,1 + 4 = 6,simple,0addition_060418_jma,4020,26,"<?xml version=""1.0""?>\n<Clock xmlns:dt=""urn:schemas-microsoft-com:datatypes""><Description dt:dt=""string"">E-Prime Primary Realtime Clock</Description><StartTime><Timestamp dt:dt=""int"">0</Timestamp><DateUtc dt:dt=""string"">2009-11-22T19:28:23Z</DateUtc></StartTime><FrequencyChanges><FrequencyChange><Frequency dt:dt=""r8"">3591050000</Frequency><Timestamp dt:dt=""r8"">3.10049077516329E+15</Timestamp><Current dt:dt=""r8"">0</Current><DateUtc dt:dt=""string"">1969-12-31T16:00:00Z</DateUtc></FrequencyChange></FrequencyChanges></Clock>\n",59.863,1,1843039894,11/22/09,11:28:23,4,2,1,2,75255,2,3648,4,3500,4,1,4,AdditionProc,List1,9 + 1 = 9,simple,1addition_060418_jma,4020,26,"<?xml version=""1.0""?>\n<Clock xmlns:dt=""urn:schemas-microsoft-com:datatypes""><Description dt:dt=""string"">E-Prime Primary Realtime Clock</Description><StartTime><Timestamp dt:dt=""int"">0</Timestamp><DateUtc dt:dt=""string"">2009-11-22T19:28:23Z</DateUtc></StartTime><FrequencyChanges><FrequencyChange><Frequency dt:dt=""r8"">3591050000</Frequency><Timestamp dt:dt=""r8"">3.10049077516329E+15</Timestamp><Current dt:dt=""r8"">0</Current><DateUtc dt:dt=""string"">1969-12-31T16:00:00Z</DateUtc></FrequencyChange></FrequencyChanges></Clock>\n",59.863,1,1843039894,11/22/09,11:28:23,5,2,0,2,84276,1,1636,5,0,5,1,5,AdditionProc,List1,8 + 4 = 11,complex,0addition_060418_jma,4020,26,"<?xml version=""1.0""?>\n<Clock xmlns:dt=""urn:schemas-microsoft-com:datatypes""><Description dt:dt=""string"">E-Prime Primary Realtime Clock</Description><StartTime><Timestamp dt:dt=""int"">0</Timestamp><DateUtc dt:dt=""string"">2009-11-22T19:28:23Z</DateUtc></StartTime><FrequencyChanges><FrequencyChange><Frequency dt:dt=""r8"">3591050000</Frequency><Timestamp dt:dt=""r8"">3.10049077516329E+15</Timestamp><Current dt:dt=""r8"">0</Current><DateUtc dt:dt=""string"">1969-12-31T16:00:00Z</DateUtc></FrequencyChange></FrequencyChanges></Clock>\n",59.863,1,1843039894,11/22/09,11:28:23,6,1,1,1,89805,1,1314,6,0,6,1,6,AdditionProc,List1,1 + 9 = 10,simple,1addition_060418_jma,4020,26,"<?xml version=""1.0""?>\n<Clock xmlns:dt=""urn:schemas-microsoft-com:datatypes""><Description dt:dt=""string"">E-Prime Primary Realtime Clock</Description><StartTime><Timestamp dt:dt=""int"">0</Timestamp><DateUtc dt:dt=""string"">2009-11-22T19:28:23Z</DateUtc></StartTime><FrequencyChanges><FrequencyChange><Frequency dt:dt=""r8"">3591050000</Frequency><Timestamp dt:dt=""r8"">3.10049077516329E+15</Timestamp><Current dt:dt=""r8"">0</Current><DateUtc dt:dt=""string"">1969-12-31T16:00:00Z</DateUtc></FrequencyChange></FrequencyChanges></Clock>\n",59.863,1,1843039894,11/22/09,11:28:23,7,1,1,1,95334,1,1677,7,3500,7,1,7,AdditionProc,List1,1 + 6 = 7,simple,1addition_060418_jma,4020,26,"<?xml version=""1.0""?>\n<Clock xmlns:dt=""urn:schemas-microsoft-com:datatypes""><Description dt:dt=""string"">E-Prime Primary Realtime Clock</Description><StartTime><Timestamp dt:dt=""int"">0</Timestamp><DateUtc dt:dt=""string"">2009-11-22T19:28:23Z</DateUtc></StartTime><FrequencyChanges><FrequencyChange><Frequency dt:dt=""r8"">3591050000</Frequency><Timestamp dt:dt=""r8"">3.10049077516329E+15</Timestamp><Current dt:dt=""r8"">0</Current><DateUtc dt:dt=""string"">1969-12-31T16:00:00Z</DateUtc></FrequencyChange></FrequencyChanges></Clock>\n",59.863,1,1843039894,11/22/09,11:28:23,8,2,1,2,104355,2,2962,8,0,8,1,8,AdditionProc,List1,7 + 1 = 10,simple,1addition_060418_jma,4020,26,"<?xml version=""1.0""?>\n<Clock xmlns:dt=""urn:schemas-microsoft-com:datatypes""><Description dt:dt=""string"">E-Prime Primary Realtime Clock</Description><StartTime><Timestamp dt:dt=""int"">0</Timestamp><DateUtc dt:dt=""string"">2009-11-22T19:28:23Z</DateUtc></StartTime><FrequencyChanges><FrequencyChange><Frequency dt:dt=""r8"">3591050000</Frequency><Timestamp dt:dt=""r8"">3.10049077516329E+15</Timestamp><Current dt:dt=""r8"">0</Current><DateUtc dt:dt=""string"">1969-12-31T16:00:00Z</DateUtc></FrequencyChange></FrequencyChanges></Clock>\n",59.863,1,1843039894,11/22/09,11:28:23,9,1,1,1,109884,1,1065,9,0,9,1,9,AdditionProc,List1,1 + 4 = 5,simple,1addition_060418_jma,4020,26,"<?xml version=""1.0""?>\n<Clock xmlns:dt=""urn:schemas-microsoft-com:datatypes""><Description dt:dt=""string"">E-Prime Primary Realtime Clock</Description><StartTime><Timestamp dt:dt=""int"">0</Timestamp><DateUtc dt:dt=""string"">2009-11-22T19:28:23Z</DateUtc></StartTime><FrequencyChanges><FrequencyChange><Frequency dt:dt=""r8"">3591050000</Frequency><Timestamp dt:dt=""r8"">3.10049077516329E+15</Timestamp><Current dt:dt=""r8"">0</Current><DateUtc dt:dt=""string"">1969-12-31T16:00:00Z</DateUtc></FrequencyChange></FrequencyChanges></Clock>\n",59.863,1,1843039894,11/22/09,11:28:23,10,1,1,1,115414,1,1989,10,2500,10,1,10,AdditionProc,List1,1 + 3 = 4,simple,1addition_060418_jma,4020,26,"<?xml version=""1.0""?>\n<Clock xmlns:dt=""urn:schemas-microsoft-com:datatypes""><Description dt:dt=""string"">E-Prime Primary Realtime Clock</Description><StartTime><Timestamp dt:dt=""int"">0</Timestamp><DateUtc dt:dt=""string"">2009-11-22T19:28:23Z</DateUtc></StartTime><FrequencyChanges><FrequencyChange><Frequency dt:dt=""r8"">3591050000</Frequency><Timestamp dt:dt=""r8"">3.10049077516329E+15</Timestamp><Current dt:dt=""r8"">0</Current><DateUtc dt:dt=""string"">1969-12-31T16:00:00Z</DateUtc></FrequencyChange></FrequencyChanges></Clock>\n",59.863,1,1843039894,11/22/09,11:28:23,11,2,1,2,123432,2,2782,11,2500,11,1,11,AdditionProc,List1,1 + 5 = 4,simple,1addition_060418_jma,4020,26,"<?xml version=""1.0""?>\n<Clock xmlns:dt=""urn:schemas-microsoft-com:datatypes""><Description dt:dt=""string"">E-Prime Primary Realtime Clock</Description><StartTime><Timestamp dt:dt=""int"">0</Timestamp><DateUtc dt:dt=""string"">2009-11-22T19:28:23Z</DateUtc></StartTime><FrequencyChanges><FrequencyChange><Frequency dt:dt=""r8"">3591050000</Frequency><Timestamp dt:dt=""r8"">3.10049077516329E+15</Timestamp><Current dt:dt=""r8"">0</Current><DateUtc dt:dt=""string"">1969-12-31T16:00:00Z</DateUtc></FrequencyChange></FrequencyChanges></Clock>\n",59.863,1,1843039894,11/22/09,11:28:23,12,1,1,1,131450,1,3214,12,0,12,1,12,AdditionProc,List1,3 + 7 = 10,complex,1addition_060418_jma,4020,26,"<?xml version=""1.0""?>\n<Clock xmlns:dt=""urn:schemas-microsoft-com:datatypes""><Description dt:dt=""string"">E-Prime Primary Realtime Clock</Description><StartTime><Timestamp dt:dt=""int"">0</Timestamp><DateUtc dt:dt=""string"">2009-11-22T19:28:23Z</DateUtc></StartTime><FrequencyChanges><FrequencyChange><Frequency dt:dt=""r8"">3591050000</Frequency><Timestamp dt:dt=""r8"">3.10049077516329E+15</Timestamp><Current dt:dt=""r8"">0</Current><DateUtc dt:dt=""string"">1969-12-31T16:00:00Z</DateUtc></FrequencyChange></FrequencyChanges></Clock>\n",59.863,1,1843039894,11/22/09,11:28:23,13,1,1,1,136980,1,4046,13,2500,13,1,13,AdditionProc,List1,2 + 5 = 7,complex,1addition_060418_jma,4020,26,"<?xml version=""1.0""?>\n<Clock xmlns:dt=""urn:schemas-microsoft-com:datatypes""><Description dt:dt=""string"">E-Prime Primary Realtime Clock</Description><StartTime><Timestamp dt:dt=""int"">0</Timestamp><DateUtc dt:dt=""string"">2009-11-22T19:28:23Z</DateUtc></StartTime><FrequencyChanges><FrequencyChange><Frequency dt:dt=""r8"">3591050000</Frequency><Timestamp dt:dt=""r8"">3.10049077516329E+15</Timestamp><Current dt:dt=""r8"">0</Current><DateUtc dt:dt=""string"">1969-12-31T16:00:00Z</DateUtc></FrequencyChange></FrequencyChanges></Clock>\n",59.863,1,1843039894,11/22/09,11:28:23,14,1,1,1,144998,1,2460,14,3500,14,1,14,AdditionProc,List1,8 + 1 = 9,simple,1addition_060418_jma,4020,26,"<?xml version=""1.0""?>\n<Clock xmlns:dt=""urn:schemas-microsoft-com:datatypes""><Description dt:dt=""string"">E-Prime Primary Realtime Clock</Description><StartTime><Timestamp dt:dt=""int"">0</Timestamp><DateUtc dt:dt=""string"">2009-11-22T19:28:23Z</DateUtc></StartTime><FrequencyChanges><FrequencyChange><Frequency dt:dt=""r8"">3591050000</Frequency><Timestamp dt:dt=""r8"">3.10049077516329E+15</Timestamp><Current dt:dt=""r8"">0</Current><DateUtc dt:dt=""string"">1969-12-31T16:00:00Z</DateUtc></FrequencyChange></FrequencyChanges></Clock>\n",59.863,1,1843039894,11/22/09,11:28:23,15,1,1,1,154019,1,4385,15,3500,15,1,15,AdditionProc,List1,6 + 4 = 10,complex,1addition_060418_jma,4020,26,"<?xml version=""1.0""?>\n<Clock xmlns:dt=""urn:schemas-microsoft-com:datatypes""><Description dt:dt=""string"">E-Prime Primary Realtime Clock</Description><StartTime><Timestamp dt:dt=""int"">0</Timestamp><DateUtc dt:dt=""string"">2009-11-22T19:28:23Z</DateUtc></StartTime><FrequencyChanges><FrequencyChange><Frequency dt:dt=""r8"">3591050000</Frequency><Timestamp dt:dt=""r8"">3.10049077516329E+15</Timestamp><Current dt:dt=""r8"">0</Current><DateUtc dt:dt=""string"">1969-12-31T16:00:00Z</DateUtc></FrequencyChange></FrequencyChanges></Clock>\n",59.863,1,1843039894,11/22/09,11:28:23,16,1,1,1,163039,1,1975,16,3500,16,1,16,AdditionProc,List1,2 + 6 = 8,complex,1addition_060418_jma,4020,26,"<?xml version=""1.0""?>\n<Clock xmlns:dt=""urn:schemas-microsoft-com:datatypes""><Description dt:dt=""string"">E-Prime Primary Realtime Clock</Description><StartTime><Timestamp dt:dt=""int"">0</Timestamp><DateUtc dt:dt=""string"">2009-11-22T19:28:23Z</DateUtc></StartTime><FrequencyChanges><FrequencyChange><Frequency dt:dt=""r8"">3591050000</Frequency><Timestamp dt:dt=""r8"">3.10049077516329E+15</Timestamp><Current dt:dt=""r8"">0</Current><DateUtc dt:dt=""string"">1969-12-31T16:00:00Z</DateUtc></FrequencyChange></FrequencyChanges></Clock>\n",59.863,1,1843039894,11/22/09,11:28:23,17,2,1,2,172060,2,2728,17,0,17,1,17,AdditionProc,List1,1 + 7 = 10,simple,1addition_060418_jma,4020,26,"<?xml version=""1.0""?>\n<Clock xmlns:dt=""urn:schemas-microsoft-com:datatypes""><Description dt:dt=""string"">E-Prime Primary Realtime Clock</Description><StartTime><Timestamp dt:dt=""int"">0</Timestamp><DateUtc dt:dt=""string"">2009-11-22T19:28:23Z</DateUtc></StartTime><FrequencyChanges><FrequencyChange><Frequency dt:dt=""r8"">3591050000</Frequency><Timestamp dt:dt=""r8"">3.10049077516329E+15</Timestamp><Current dt:dt=""r8"">0</Current><DateUtc dt:dt=""string"">1969-12-31T16:00:00Z</DateUtc></FrequencyChange></FrequencyChanges></Clock>\n",59.863,1,1843039894,11/22/09,11:28:23,18,1,1,1,177589,1,1950,18,3500,18,1,18,AdditionProc,List1,3 + 1 = 4,simple,1addition_060418_jma,4020,26,"<?xml version=""1.0""?>\n<Clock xmlns:dt=""urn:schemas-microsoft-com:datatypes""><Description dt:dt=""string"">E-Prime Primary Realtime Clock</Description><StartTime><Timestamp dt:dt=""int"">0</Timestamp><DateUtc dt:dt=""string"">2009-11-22T19:28:23Z</DateUtc></StartTime><FrequencyChanges><FrequencyChange><Frequency dt:dt=""r8"">3591050000</Frequency><Timestamp dt:dt=""r8"">3.10049077516329E+15</Timestamp><Current dt:dt=""r8"">0</Current><DateUtc dt:dt=""string"">1969-12-31T16:00:00Z</DateUtc></FrequencyChange></FrequencyChanges></Clock>\n",59.863,1,1843039894,11/22/09,11:28:23,19,1,1,1,186610,1,3675,19,2500,19,1,19,AdditionProc,List1,8 + 2 = 10,complex,1addition_060418_jma,4020,26,"<?xml version=""1.0""?>\n<Clock xmlns:dt=""urn:schemas-microsoft-com:datatypes""><Description dt:dt=""string"">E-Prime Primary Realtime Clock</Description><StartTime><Timestamp dt:dt=""int"">0</Timestamp><DateUtc dt:dt=""string"">2009-11-22T19:28:23Z</DateUtc></StartTime><FrequencyChanges><FrequencyChange><Frequency dt:dt=""r8"">3591050000</Frequency><Timestamp dt:dt=""r8"">3.10049077516329E+15</Timestamp><Current dt:dt=""r8"">0</Current><DateUtc dt:dt=""string"">1969-12-31T16:00:00Z</DateUtc></FrequencyChange></FrequencyChanges></Clock>\n",59.863,1,1843039894,11/22/09,11:28:23,20,2,1,2,194628,2,4211,20,0,20,1,20,AdditionProc,List1,7 + 1 = 6,simple,1addition_060418_jma,4020,26,"<?xml version=""1.0""?>\n<Clock xmlns:dt=""urn:schemas-microsoft-com:datatypes""><Description dt:dt=""string"">E-Prime Primary Realtime Clock</Description><StartTime><Timestamp dt:dt=""int"">0</Timestamp><DateUtc dt:dt=""string"">2009-11-22T19:28:23Z</DateUtc></StartTime><FrequencyChanges><FrequencyChange><Frequency dt:dt=""r8"">3591050000</Frequency><Timestamp dt:dt=""r8"">3.10049077516329E+15</Timestamp><Current dt:dt=""r8"">0</Current><DateUtc dt:dt=""string"">1969-12-31T16:00:00Z</DateUtc></FrequencyChange></FrequencyChanges></Clock>\n",59.863,1,1843039894,11/22/09,11:28:23,21,1,1,1,200157,1,3818,21,2500,21,1,21,AdditionProc,List1,5 + 9 = 14,complex,1addition_060418_jma,4020,26,"<?xml version=""1.0""?>\n<Clock xmlns:dt=""urn:schemas-microsoft-com:datatypes""><Description dt:dt=""string"">E-Prime Primary Realtime Clock</Description><StartTime><Timestamp dt:dt=""int"">0</Timestamp><DateUtc dt:dt=""string"">2009-11-22T19:28:23Z</DateUtc></StartTime><FrequencyChanges><FrequencyChange><Frequency dt:dt=""r8"">3591050000</Frequency><Timestamp dt:dt=""r8"">3.10049077516329E+15</Timestamp><Current dt:dt=""r8"">0</Current><DateUtc dt:dt=""string"">1969-12-31T16:00:00Z</DateUtc></FrequencyChange></FrequencyChanges></Clock>\n",59.863,1,1843039894,11/22/09,11:28:23,22,2,1,2,208176,2,3496,22,0,22,1,22,AdditionProc,List1,4 + 7 = 12,complex,1addition_060418_jma,4020,26,"<?xml version=""1.0""?>\n<Clock xmlns:dt=""urn:schemas-microsoft-com:datatypes""><Description dt:dt=""string"">E-Prime Primary Realtime Clock</Description><StartTime><Timestamp dt:dt=""int"">0</Timestamp><DateUtc dt:dt=""string"">2009-11-22T19:28:23Z</DateUtc></StartTime><FrequencyChanges><FrequencyChange><Frequency dt:dt=""r8"">3591050000</Frequency><Timestamp dt:dt=""r8"">3.10049077516329E+15</Timestamp><Current dt:dt=""r8"">0</Current><DateUtc dt:dt=""string"">1969-12-31T16:00:00Z</DateUtc></FrequencyChange></FrequencyChanges></Clock>\n",59.863,1,1843039894,11/22/09,11:28:23,23,2,1,2,213705,2,4845,23,0,23,1,23,AdditionProc,List1,5 + 7 = 11,complex,1addition_060418_jma,4020,26,"<?xml version=""1.0""?>\n<Clock xmlns:dt=""urn:schemas-microsoft-com:datatypes""><Description dt:dt=""string"">E-Prime Primary Realtime Clock</Description><StartTime><Timestamp dt:dt=""int"">0</Timestamp><DateUtc dt:dt=""string"">2009-11-22T19:28:23Z</DateUtc></StartTime><FrequencyChanges><FrequencyChange><Frequency dt:dt=""r8"">3591050000</Frequency><Timestamp dt:dt=""r8"">3.10049077516329E+15</Timestamp><Current dt:dt=""r8"">0</Current><DateUtc dt:dt=""string"">1969-12-31T16:00:00Z</DateUtc></FrequencyChange></FrequencyChanges></Clock>\n",59.863,1,1843039894,11/22/09,11:28:23,24,2,1,2,219234,2,2464,24,0,24,1,24,AdditionProc,List1,5 + 1 = 5,simple,1addition_060418_jma,4020,26,"<?xml version=""1.0""?>\n<Clock xmlns:dt=""urn:schemas-microsoft-com:datatypes""><Description dt:dt=""string"">E-Prime Primary Realtime Clock</Description><StartTime><Timestamp dt:dt=""int"">0</Timestamp><DateUtc dt:dt=""string"">2009-11-22T19:28:23Z</DateUtc></StartTime><FrequencyChanges><FrequencyChange><Frequency dt:dt=""r8"">3591050000</Frequency><Timestamp dt:dt=""r8"">3.10049077516329E+15</Timestamp><Current dt:dt=""r8"">0</Current><DateUtc dt:dt=""string"">1969-12-31T16:00:00Z</DateUtc></FrequencyChange></FrequencyChanges></Clock>\n",59.863,1,1843039894,11/22/09,11:28:23,25,1,1,1,224763,1,2433,25,2500,25,1,25,AdditionProc,List1,3 + 9 = 12,complex,1addition_060418_jma,4020,26,"<?xml version=""1.0""?>\n<Clock xmlns:dt=""urn:schemas-microsoft-com:datatypes""><Description dt:dt=""string"">E-Prime Primary Realtime Clock</Description><StartTime><Timestamp dt:dt=""int"">0</Timestamp><DateUtc dt:dt=""string"">2009-11-22T19:28:23Z</DateUtc></StartTime><FrequencyChanges><FrequencyChange><Frequency dt:dt=""r8"">3591050000</Frequency><Timestamp dt:dt=""r8"">3.10049077516329E+15</Timestamp><Current dt:dt=""r8"">0</Current><DateUtc dt:dt=""string"">1969-12-31T16:00:00Z</DateUtc></FrequencyChange></FrequencyChanges></Clock>\n",59.863,1,1843039894,11/22/09,11:28:23,26,2,1,2,232782,2,3291,26,3500,26,1,26,AdditionProc,List1,9 + 3 = 11,complex,1addition_060418_jma,4020,26,"<?xml version=""1.0""?>\n<Clock xmlns:dt=""urn:schemas-microsoft-com:datatypes""><Description dt:dt=""string"">E-Prime Primary Realtime Clock</Description><StartTime><Timestamp dt:dt=""int"">0</Timestamp><DateUtc dt:dt=""string"">2009-11-22T19:28:23Z</DateUtc></StartTime><FrequencyChanges><FrequencyChange><Frequency dt:dt=""r8"">3591050000</Frequency><Timestamp dt:dt=""r8"">3.10049077516329E+15</Timestamp><Current dt:dt=""r8"">0</Current><DateUtc dt:dt=""string"">1969-12-31T16:00:00Z</DateUtc></FrequencyChange></FrequencyChanges></Clock>\n",59.863,1,1843039894,11/22/09,11:28:23,27,1,1,1,241802,1,4662,27,2500,27,1,27,AdditionProc,List1,4 + 1 = 5,simple,1addition_060418_jma,4020,26,"<?xml version=""1.0""?>\n<Clock xmlns:dt=""urn:schemas-microsoft-com:datatypes""><Description dt:dt=""string"">E-Prime Primary Realtime Clock</Description><StartTime><Timestamp dt:dt=""int"">0</Timestamp><DateUtc dt:dt=""string"">2009-11-22T19:28:23Z</DateUtc></StartTime><FrequencyChanges><FrequencyChange><Frequency dt:dt=""r8"">3591050000</Frequency><Timestamp dt:dt=""r8"">3.10049077516329E+15</Timestamp><Current dt:dt=""r8"">0</Current><DateUtc dt:dt=""string"">1969-12-31T16:00:00Z</DateUtc></FrequencyChange></FrequencyChanges></Clock>\n",59.863,1,1843039894,11/22/09,11:28:23,28,1,1,1,249821,1,3080,28,0,28,1,28,AdditionProc,List1,4 + 1 = 5,simple,1addition_060418_jma,4020,26,"<?xml version=""1.0""?>\n<Clock xmlns:dt=""urn:schemas-microsoft-com:datatypes""><Description dt:dt=""string"">E-Prime Primary Realtime Clock</Description><StartTime><Timestamp dt:dt=""int"">0</Timestamp><DateUtc dt:dt=""string"">2009-11-22T19:28:23Z</DateUtc></StartTime><FrequencyChanges><FrequencyChange><Frequency dt:dt=""r8"">3591050000</Frequency><Timestamp dt:dt=""r8"">3.10049077516329E+15</Timestamp><Current dt:dt=""r8"">0</Current><DateUtc dt:dt=""string"">1969-12-31T16:00:00Z</DateUtc></FrequencyChange></FrequencyChanges></Clock>\n",59.863,1,1843039894,11/22/09,11:28:23,29,2,0,2,255350,1,2085,29,0,29,1,29,AdditionProc,List1,1 + 6 = 6,simple,0addition_060418_jma,4020,26,"<?xml version=""1.0""?>\n<Clock xmlns:dt=""urn:schemas-microsoft-com:datatypes""><Description dt:dt=""string"">E-Prime Primary Realtime Clock</Description><StartTime><Timestamp dt:dt=""int"">0</Timestamp><DateUtc dt:dt=""string"">2009-11-22T19:28:23Z</DateUtc></StartTime><FrequencyChanges><FrequencyChange><Frequency dt:dt=""r8"">3591050000</Frequency><Timestamp dt:dt=""r8"">3.10049077516329E+15</Timestamp><Current dt:dt=""r8"">0</Current><DateUtc dt:dt=""string"">1969-12-31T16:00:00Z</DateUtc></FrequencyChange></FrequencyChanges></Clock>\n",59.863,1,1843039894,11/22/09,11:28:23,30,1,1,1,260879,1,4746,30,2500,30,1,30,AdditionProc,List1,9 + 5 = 14,complex,1addition_060418_jma,4020,26,"<?xml version=""1.0""?>\n<Clock xmlns:dt=""urn:schemas-microsoft-com:datatypes""><Description dt:dt=""string"">E-Prime Primary Realtime Clock</Description><StartTime><Timestamp dt:dt=""int"">0</Timestamp><DateUtc dt:dt=""string"">2009-11-22T19:28:23Z</DateUtc></StartTime><FrequencyChanges><FrequencyChange><Frequency dt:dt=""r8"">3591050000</Frequency><Timestamp dt:dt=""r8"">3.10049077516329E+15</Timestamp><Current dt:dt=""r8"">0</Current><DateUtc dt:dt=""string"">1969-12-31T16:00:00Z</DateUtc></FrequencyChange></FrequencyChanges></Clock>\n",59.863,1,1843039894,11/22/09,11:28:23,31,1,1,1,268898,1,4942,31,0,31,1,31,AdditionProc,List1,2 + 9 = 11,complex,1addition_060418_jma,4020,26,"<?xml version=""1.0""?>\n<Clock xmlns:dt=""urn:schemas-microsoft-com:datatypes""><Description dt:dt=""string"">E-Prime Primary Realtime Clock</Description><StartTime><Timestamp dt:dt=""int"">0</Timestamp><DateUtc dt:dt=""string"">2009-11-22T19:28:23Z</DateUtc></StartTime><FrequencyChanges><FrequencyChange><Frequency dt:dt=""r8"">3591050000</Frequency><Timestamp dt:dt=""r8"">3.10049077516329E+15</Timestamp><Current dt:dt=""r8"">0</Current><DateUtc dt:dt=""string"">1969-12-31T16:00:00Z</DateUtc></FrequencyChange></FrequencyChanges></Clock>\n",59.863,1,1843039894,11/22/09,11:28:23,32,1,1,1,274427,1,1218,32,0,32,1,32,AdditionProc,List1,2 + 8 = 10,complex,1addition_060418_jma,4020,26,"<?xml version=""1.0""?>\n<Clock xmlns:dt=""urn:schemas-microsoft-com:datatypes""><Description dt:dt=""string"">E-Prime Primary Realtime Clock</Description><StartTime><Timestamp dt:dt=""int"">0</Timestamp><DateUtc dt:dt=""string"">2009-11-22T19:28:23Z</DateUtc></StartTime><FrequencyChanges><FrequencyChange><Frequency dt:dt=""r8"">3591050000</Frequency><Timestamp dt:dt=""r8"">3.10049077516329E+15</Timestamp><Current dt:dt=""r8"">0</Current><DateUtc dt:dt=""string"">1969-12-31T16:00:00Z</DateUtc></FrequencyChange></FrequencyChanges></Clock>\n",59.863,1,1843039894,11/22/09,11:28:23,33,1,0,1,279956,,0,33,2500,33,1,33,AdditionProc,List1,6 + 5 = 11,complex,0addition_060418_jma,4020,26,"<?xml version=""1.0""?>\n<Clock xmlns:dt=""urn:schemas-microsoft-com:datatypes""><Description dt:dt=""string"">E-Prime Primary Realtime Clock</Description><StartTime><Timestamp dt:dt=""int"">0</Timestamp><DateUtc dt:dt=""string"">2009-11-22T19:28:23Z</DateUtc></StartTime><FrequencyChanges><FrequencyChange><Frequency dt:dt=""r8"">3591050000</Frequency><Timestamp dt:dt=""r8"">3.10049077516329E+15</Timestamp><Current dt:dt=""r8"">0</Current><DateUtc dt:dt=""string"">1969-12-31T16:00:00Z</DateUtc></FrequencyChange></FrequencyChanges></Clock>\n",59.863,1,1843039894,11/22/09,11:28:23,34,1,1,1,287975,1,1930,34,3500,34,1,34,AdditionProc,List1,1 + 7 = 8,simple,1addition_060418_jma,4020,26,"<?xml version=""1.0""?>\n<Clock xmlns:dt=""urn:schemas-microsoft-com:datatypes""><Description dt:dt=""string"">E-Prime Primary Realtime Clock</Description><StartTime><Timestamp dt:dt=""int"">0</Timestamp><DateUtc dt:dt=""string"">2009-11-22T19:28:23Z</DateUtc></StartTime><FrequencyChanges><FrequencyChange><Frequency dt:dt=""r8"">3591050000</Frequency><Timestamp dt:dt=""r8"">3.10049077516329E+15</Timestamp><Current dt:dt=""r8"">0</Current><DateUtc dt:dt=""string"">1969-12-31T16:00:00Z</DateUtc></FrequencyChange></FrequencyChanges></Clock>\n",59.863,1,1843039894,11/22/09,11:28:23,35,2,1,2,296995,2,2495,35,3500,35,1,35,AdditionProc,List1,1 + 3 = 5,simple,1addition_060418_jma,4020,26,"<?xml version=""1.0""?>\n<Clock xmlns:dt=""urn:schemas-microsoft-com:datatypes""><Description dt:dt=""string"">E-Prime Primary Realtime Clock</Description><StartTime><Timestamp dt:dt=""int"">0</Timestamp><DateUtc dt:dt=""string"">2009-11-22T19:28:23Z</DateUtc></StartTime><FrequencyChanges><FrequencyChange><Frequency dt:dt=""r8"">3591050000</Frequency><Timestamp dt:dt=""r8"">3.10049077516329E+15</Timestamp><Current dt:dt=""r8"">0</Current><DateUtc dt:dt=""string"">1969-12-31T16:00:00Z</DateUtc></FrequencyChange></FrequencyChanges></Clock>\n",59.863,1,1843039894,11/22/09,11:28:23,36,2,1,2,306016,2,4174,36,2500,36,1,36,AdditionProc,List1,1 + 9 = 12,simple,1addition_060418_jma,4020,26,"<?xml version=""1.0""?>\n<Clock xmlns:dt=""urn:schemas-microsoft-com:datatypes""><Description dt:dt=""string"">E-Prime Primary Realtime Clock</Description><StartTime><Timestamp dt:dt=""int"">0</Timestamp><DateUtc dt:dt=""string"">2009-11-22T19:28:23Z</DateUtc></StartTime><FrequencyChanges><FrequencyChange><Frequency dt:dt=""r8"">3591050000</Frequency><Timestamp dt:dt=""r8"">3.10049077516329E+15</Timestamp><Current dt:dt=""r8"">0</Current><DateUtc dt:dt=""string"">1969-12-31T16:00:00Z</DateUtc></FrequencyChange></FrequencyChanges></Clock>\n",59.863,1,1843039894,11/22/09,11:28:23,37,2,0,2,314034,,0,37,0,37,1,37,AdditionProc,List1,5 + 3 = 9,complex,0addition_060418_jma,4020,26,"<?xml version=""1.0""?>\n<Clock xmlns:dt=""urn:schemas-microsoft-com:datatypes""><Description dt:dt=""string"">E-Prime Primary Realtime Clock</Description><StartTime><Timestamp dt:dt=""int"">0</Timestamp><DateUtc dt:dt=""string"">2009-11-22T19:28:23Z</DateUtc></StartTime><FrequencyChanges><FrequencyChange><Frequency dt:dt=""r8"">3591050000</Frequency><Timestamp dt:dt=""r8"">3.10049077516329E+15</Timestamp><Current dt:dt=""r8"">0</Current><DateUtc dt:dt=""string"">1969-12-31T16:00:00Z</DateUtc></FrequencyChange></FrequencyChanges></Clock>\n",59.863,1,1843039894,11/22/09,11:28:23,38,1,1,1,319563,1,1831,38,3500,38,1,38,AdditionProc,List1,9 + 5 = 14,complex,1addition_060418_jma,4020,26,"<?xml version=""1.0""?>\n<Clock xmlns:dt=""urn:schemas-microsoft-com:datatypes""><Description dt:dt=""string"">E-Prime Primary Realtime Clock</Description><StartTime><Timestamp dt:dt=""int"">0</Timestamp><DateUtc dt:dt=""string"">2009-11-22T19:28:23Z</DateUtc></StartTime><FrequencyChanges><FrequencyChange><Frequency dt:dt=""r8"">3591050000</Frequency><Timestamp dt:dt=""r8"">3.10049077516329E+15</Timestamp><Current dt:dt=""r8"">0</Current><DateUtc dt:dt=""string"">1969-12-31T16:00:00Z</DateUtc></FrequencyChange></FrequencyChanges></Clock>\n",59.863,1,1843039894,11/22/09,11:28:23,39,2,1,2,328584,2,3145,39,2500,39,1,39,AdditionProc,List1,1 + 8 = 11,simple,1addition_060418_jma,4020,26,"<?xml version=""1.0""?>\n<Clock xmlns:dt=""urn:schemas-microsoft-com:datatypes""><Description dt:dt=""string"">E-Prime Primary Realtime Clock</Description><StartTime><Timestamp dt:dt=""int"">0</Timestamp><DateUtc dt:dt=""string"">2009-11-22T19:28:23Z</DateUtc></StartTime><FrequencyChanges><FrequencyChange><Frequency dt:dt=""r8"">3591050000</Frequency><Timestamp dt:dt=""r8"">3.10049077516329E+15</Timestamp><Current dt:dt=""r8"">0</Current><DateUtc dt:dt=""string"">1969-12-31T16:00:00Z</DateUtc></FrequencyChange></FrequencyChanges></Clock>\n",59.863,1,1843039894,11/22/09,11:28:23,40,1,1,1,336602,1,3312,40,2500,40,1,40,AdditionProc,List1,5 + 1 = 6,simple,1addition_060418_jma,4020,26,"<?xml version=""1.0""?>\n<Clock xmlns:dt=""urn:schemas-microsoft-com:datatypes""><Description dt:dt=""string"">E-Prime Primary Realtime Clock</Description><StartTime><Timestamp dt:dt=""int"">0</Timestamp><DateUtc dt:dt=""string"">2009-11-22T19:28:23Z</DateUtc></StartTime><FrequencyChanges><FrequencyChange><Frequency dt:dt=""r8"">3591050000</Frequency><Timestamp dt:dt=""r8"">3.10049077516329E+15</Timestamp><Current dt:dt=""r8"">0</Current><DateUtc dt:dt=""string"">1969-12-31T16:00:00Z</DateUtc></FrequencyChange></FrequencyChanges></Clock>\n",59.863,1,1843039894,11/22/09,11:28:23,41,2,1,2,344621,2,3335,41,0,41,1,41,AdditionProc,List1,5 + 2 = 8,complex,1