,RT,response_time,stimulus_time,accuracy,trialID,subject,task,session
0,750,39.454,38.704,1,14,100307,0bk,RL
1,673,41.95,41.277,1,15,100307,0bk,RL
2,1179,45.028,43.849,1,16,100307,0bk,RL
3,748,47.169,46.42100000000001,1,17,100307,0bk,RL
4,725,49.718,48.993,1,18,100307,0bk,RL
5,607,52.173,51.566,1,19,100307,0bk,RL
6,630,54.768,54.138000000000005,1,20,100307,0bk,RL
7,571,57.281000000000006,56.71,1,21,100307,0bk,RL
8,752,60.035,59.283,1,22,100307,0bk,RL
9,649,62.504,61.855,1,23,100307,0bk,RL
10,1093,111.088,109.995,1,37,100307,0bk,RL
11,571,113.126,112.555,1,38,100307,0bk,RL
12,885,115.99799999999999,115.113,1,39,100307,0bk,RL
13,898,118.57,117.67200000000001,1,40,100307,0bk,RL
14,852,121.083,120.23100000000001,0,41,100307,0bk,RL
15,774,123.564,122.79,1,42,100307,0bk,RL
16,813,126.162,125.34899999999999,1,43,100307,0bk,RL
17,804,128.71200000000002,127.90799999999999,1,44,100307,0bk,RL
18,1004,131.471,130.467,1,45,100307,0bk,RL
19,839,133.865,133.026,1,46,100307,0bk,RL
20,788,153.886,153.09799999999998,1,49,100307,0bk,RL
21,707,156.377,155.67,1,50,100307,0bk,RL
22,857,159.099,158.24200000000002,1,51,100307,0bk,RL
23,1029,161.844,160.815,1,52,100307,0bk,RL
24,649,164.03599999999997,163.387,1,53,100307,0bk,RL
25,911,166.87,165.959,1,54,100307,0bk,RL
26,773,169.305,168.532,1,55,100307,0bk,RL
27,589,171.68,171.09099999999998,1,56,100307,0bk,RL
28,672,174.322,173.65,1,57,100307,0bk,RL
29,694,176.916,176.222,1,58,100307,0bk,RL
30,975,225.47099999999998,224.49599999999998,1,72,100307,0bk,RL
31,1294,228.34900000000002,227.055,1,73,100307,0bk,RL
32,1408,231.02200000000002,229.614,1,74,100307,0bk,RL
33,1786,233.959,232.173,0,75,100307,0bk,RL
34,575,235.30599999999998,234.731,1,76,100307,0bk,RL
35,549,237.83900000000003,237.29,1,77,100307,0bk,RL
36,1672,241.521,239.84900000000002,1,78,100307,0bk,RL
37,0,-69.189,242.408,0,79,100307,0bk,RL
38,1005,245.972,244.967,1,80,100307,0bk,RL
39,1704,249.23,247.52599999999998,0,81,100307,0bk,RL
0,490,11.059000000000001,10.569,1,3,100307,2bk,RL
1,1001,14.142000000000001,13.140999999999998,1,4,100307,2bk,RL
2,1297,16.997,15.7,1,5,100307,2bk,RL
3,1494,19.767,18.273,0,6,100307,2bk,RL
4,1112,21.956999999999997,20.845,1,7,100307,2bk,RL
5,1445,24.849,23.404,1,8,100307,2bk,RL
6,1322,27.285,25.963,0,9,100307,2bk,RL
7,799,29.320999999999998,28.522,1,10,100307,2bk,RL
8,1185,32.266,31.081,0,11,100307,2bk,RL
9,1281,34.921,33.64,0,12,100307,2bk,RL
10,550,82.463,81.913,1,26,100307,2bk,RL
11,602,85.074,84.47200000000001,1,27,100307,2bk,RL
12,976,88.007,87.031,1,28,100307,2bk,RL
13,726,90.316,89.59,1,29,100307,2bk,RL
14,1072,93.221,92.149,0,30,100307,2bk,RL
15,0,-69.189,94.708,0,31,100307,2bk,RL
16,1512,98.779,97.26700000000001,1,32,100307,2bk,RL
17,836,100.662,99.82600000000001,1,33,100307,2bk,RL
18,706,103.09100000000001,102.385,1,34,100307,2bk,RL
19,668,105.61200000000001,104.944,1,35,100307,2bk,RL
20,1311,182.597,181.28599999999997,1,60,100307,2bk,RL
21,642,184.50099999999998,183.859,1,61,100307,2bk,RL
22,827,187.25799999999998,186.43099999999998,1,62,100307,2bk,RL
23,598,189.601,189.003,1,63,100307,2bk,RL
24,537,192.113,191.576,1,64,100307,2bk,RL
25,682,194.83,194.148,1,65,100307,2bk,RL
26,596,197.31599999999997,196.72,1,66,100307,2bk,RL
27,877,200.17,199.293,1,67,100307,2bk,RL
28,993,202.858,201.865,1,68,100307,2bk,RL
29,1050,205.487,204.437,1,69,100307,2bk,RL
30,1574,254.165,252.59099999999998,1,83,100307,2bk,RL
31,995,256.158,255.16299999999998,1,84,100307,2bk,RL
32,625,258.361,257.736,1,85,100307,2bk,RL
33,819,261.11400000000003,260.295,1,86,100307,2bk,RL
34,1037,263.89099999999996,262.85400000000004,1,87,100307,2bk,RL
35,1085,266.498,265.413,0,88,100307,2bk,RL
36,1040,269.025,267.985,1,89,100307,2bk,RL
37,640,271.197,270.557,1,90,100307,2bk,RL
38,889,274.018,273.129,1,91,100307,2bk,RL
39,801,276.503,275.702,1,92,100307,2bk,RL
0,1686,40.376999999999995,38.691,1,14,100408,0bk,RL
1,1016,42.278999999999996,41.263000000000005,1,15,100408,0bk,RL
2,1837,45.672,43.835,1,16,100408,0bk,RL
3,0,-190.36599999999999,46.408,0,17,100408,0bk,RL
4,835,49.815,48.98,1,18,100408,0bk,RL
5,1376,52.928000000000004,51.552,0,19,100408,0bk,RL
6,1676,55.8,54.123999999999995,1,20,100408,0bk,RL
7,1316,58.013000000000005,56.696999999999996,1,21,100408,0bk,RL
8,1166,60.435,59.269,1,22,100408,0bk,RL
9,1207,63.048,61.841,1,23,100408,0bk,RL
10,0,-190.36599999999999,109.98200000000001,0,37,100408,0bk,RL
11,1023,113.564,112.541,1,38,100408,0bk,RL
12,940,116.04,115.1,1,39,100408,0bk,RL
13,1182,118.84100000000001,117.65899999999999,1,40,100408,0bk,RL
14,1070,121.301,120.23100000000001,1,41,100408,0bk,RL
15,857,123.647,122.79,1,42,100408,0bk,RL
16,769,126.118,125.34899999999999,1,43,100408,0bk,RL
17,1086,128.994,127.90799999999999,1,44,100408,0bk,RL
18,1041,131.50799999999998,130.467,1,45,100408,0bk,RL
19,890,133.916,133.026,1,46,100408,0bk,RL
20,812,153.89600000000002,153.084,1,49,100408,0bk,RL
21,990,156.64700000000002,155.657,1,50,100408,0bk,RL
22,1304,159.533,158.22899999999998,1,51,100408,0bk,RL
23,700,161.501,160.80100000000002,1,52,100408,0bk,RL
24,561,163.93400000000003,163.373,1,53,100408,0bk,RL
25,984,166.93,165.946,1,54,100408,0bk,RL
26,896,169.40099999999998,168.505,1,55,100408,0bk,RL
27,954,172.03099999999998,171.077,1,56,100408,0bk,RL
28,662,174.298,173.636,1,57,100408,0bk,RL
29,641,176.84900000000002,176.208,1,58,100408,0bk,RL
30,0,-190.36599999999999,224.482,0,72,100408,0bk,RL
31,1657,228.69799999999998,227.041,1,73,100408,0bk,RL
32,1105,230.705,229.6,1,74,100408,0bk,RL
33,1305,233.46400000000003,232.15900000000002,1,75,100408,0bk,RL
34,862,235.58,234.718,1,76,100408,0bk,RL
35,815,238.092,237.27700000000002,1,77,100408,0bk,RL
36,783,240.61900000000003,239.83599999999998,1,78,100408,0bk,RL
37,617,243.012,242.395,1,79,100408,0bk,RL
38,796,245.75,244.954,1,80,100408,0bk,RL
39,531,248.044,247.513,1,81,100408,0bk,RL
0,992,11.547,10.555,1,3,100408,2bk,RL
1,1511,14.639000000000001,13.128,1,4,100408,2bk,RL
2,841,16.528,15.687000000000001,0,5,100408,2bk,RL
3,1035,19.294,18.259,1,6,100408,2bk,RL
4,1582,22.413,20.831,1,7,100408,2bk,RL
5,1251,24.641,23.39,1,8,100408,2bk,RL
6,1619,27.568,25.949,1,9,100408,2bk,RL
7,1461,29.969,28.508000000000003,1,10,100408,2bk,RL
8,1053,32.12,31.066999999999997,0,11,100408,2bk,RL
9,1077,34.703,33.626,1,12,100408,2bk,RL
10,1256,83.156,81.9,1,26,100408,2bk,RL
11,1042,85.501,84.459,1,27,100408,2bk,RL
12,1134,88.152,87.01799999999999,1,28,100408,2bk,RL
13,1101,90.678,89.57700000000001,1,29,100408,2bk,RL
14,1256,93.39200000000001,92.13600000000001,1,30,100408,2bk,RL
15,1944,96.639,94.695,0,31,100408,2bk,RL
16,1521,98.775,97.25399999999999,1,32,100408,2bk,RL
17,1161,100.97399999999999,99.81299999999999,0,33,100408,2bk,RL
18,1205,103.57600000000001,102.37100000000001,1,34,100408,2bk,RL
19,1525,106.455,104.93,1,35,100408,2bk,RL
20,1755,183.028,181.273,1,60,100408,2bk,RL
21,1145,184.99,183.845,1,61,100408,2bk,RL
22,944,187.361,186.417,1,62,100408,2bk,RL
23,1558,190.548,188.99,1,63,100408,2bk,RL
24,1565,193.127,191.562,1,64,100408,2bk,RL
25,906,195.04,194.13400000000001,1,65,100408,2bk,RL
26,905,197.612,196.707,1,66,100408,2bk,RL
27,1190,200.46900000000002,199.27900000000002,1,67,100408,2bk,RL
28,1184,203.035,201.851,1,68,100408,2bk,RL
29,952,205.375,204.423,1,69,100408,2bk,RL
30,0,-190.36599999999999,252.577,0,83,100408,2bk,RL
31,550,255.699,255.149,1,84,100408,2bk,RL
32,1269,258.991,257.722,1,85,100408,2bk,RL
33,773,261.067,260.29400000000004,1,86,100408,2bk,RL
34,919,263.77299999999997,262.85400000000004,1,87,100408,2bk,RL
35,920,266.332,265.41200000000003,1,88,100408,2bk,RL
36,1031,269.015,267.98400000000004,1,89,100408,2bk,RL
37,1096,271.653,270.557,1,90,100408,2bk,RL
38,834,273.95,273.116,1,91,100408,2bk,RL
39,1036,276.724,275.688,1,92,100408,2bk,RL
0,0,-131.882,38.705,0,14,101006,0bk,RL
1,264,41.541000000000004,41.277,0,15,101006,0bk,RL
2,751,44.6,43.849,1,16,101006,0bk,RL
3,734,47.156000000000006,46.422,1,17,101006,0bk,RL
4,775,49.769,48.994,1,18,101006,0bk,RL
5,1011,52.577,51.566,1,19,101006,0bk,RL
6,569,54.707,54.138000000000005,1,20,101006,0bk,RL
7,831,57.542,56.711000000000006,1,21,101006,0bk,RL
8,1751,61.034,59.283,1,22,101006,0bk,RL
9,705,62.56,61.855,1,23,101006,0bk,RL
10,1225,111.221,109.99600000000001,0,37,101006,0bk,RL
11,0,-131.882,112.568,0,38,101006,0bk,RL
12,748,115.875,115.12700000000001,1,39,101006,0bk,RL
13,631,118.31700000000001,117.686,1,40,101006,0bk,RL
14,1169,121.428,120.259,0,41,101006,0bk,RL
15,898,123.71600000000001,122.818,1,42,101006,0bk,RL
16,902,126.279,125.37700000000001,1,43,101006,0bk,RL
17,1538,129.47299999999998,127.935,1,44,101006,0bk,RL
18,838,131.332,130.494,1,45,101006,0bk,RL
19,625,133.679,133.054,1,46,101006,0bk,RL
20,762,153.887,153.125,1,49,101006,0bk,RL
21,821,156.519,155.69799999999998,1,50,101006,0bk,RL
22,614,158.884,158.27,1,51,101006,0bk,RL
23,522,161.364,160.842,1,52,101006,0bk,RL
24,545,163.96,163.415,1,53,101006,0bk,RL
25,655,166.642,165.987,1,54,101006,0bk,RL
26,629,169.188,168.55900000000003,1,55,101006,0bk,RL
27,615,171.733,171.118,1,56,101006,0bk,RL
28,513,174.203,173.69,1,57,101006,0bk,RL
29,650,176.91299999999998,176.263,1,58,101006,0bk,RL
30,731,225.268,224.537,1,72,101006,0bk,RL
31,565,227.66099999999997,227.09599999999998,1,73,101006,0bk,RL
32,498,230.153,229.655,1,74,101006,0bk,RL
33,471,232.685,232.21400000000003,1,75,101006,0bk,RL
34,461,235.234,234.773,1,76,101006,0bk,RL
35,606,237.938,237.332,1,77,101006,0bk,RL
36,723,240.614,239.891,1,78,101006,0bk,RL
37,565,243.015,242.45,1,79,101006,0bk,RL
38,527,245.53599999999997,245.00900000000001,1,80,101006,0bk,RL
39,562,248.12900000000002,247.567,1,81,101006,0bk,RL
0,1177,11.745999999999999,10.569,1,3,101006,2bk,RL
1,1018,14.16,13.142000000000001,1,4,101006,2bk,RL
2,1078,16.779,15.700999999999999,0,5,101006,2bk,RL
3,1112,19.385,18.273,0,6,101006,2bk,RL
4,1113,21.958000000000002,20.845,1,7,101006,2bk,RL
5,885,24.289,23.404,1,8,101006,2bk,RL
6,962,26.925,25.963,0,9,101006,2bk,RL
7,782,29.304000000000002,28.522,1,10,101006,2bk,RL
8,1161,32.242,31.081,1,11,101006,2bk,RL
9,854,34.494,33.64,0,12,101006,2bk,RL
10,1009,82.92299999999999,81.914,1,26,101006,2bk,RL
11,565,85.038,84.473,1,27,101006,2bk,RL
12,1061,88.09299999999999,87.03200000000001,1,28,101006,2bk,RL
13,915,90.506,89.59100000000001,0,29,101006,2bk,RL
14,641,92.791,92.15,0,30,101006,2bk,RL
15,530,95.23899999999999,94.709,1,31,101006,2bk,RL
16,619,97.887,97.26799999999999,1,32,101006,2bk,RL
17,912,100.73899999999999,99.82700000000001,1,33,101006,2bk,RL
18,639,103.025,102.38600000000001,0,34,101006,2bk,RL
19,614,105.559,104.945,1,35,101006,2bk,RL
20,1745,183.072,181.327,1,60,101006,2bk,RL
21,462,184.362,183.9,1,61,101006,2bk,RL
22,688,187.16,186.472,1,62,101006,2bk,RL
23,528,189.572,189.044,1,63,101006,2bk,RL
24,505,192.122,191.61700000000002,1,64,101006,2bk,RL
25,572,194.761,194.18900000000002,0,65,101006,2bk,RL
26,560,197.321,196.761,1,66,101006,2bk,RL
27,525,199.858,199.333,1,67,101006,2bk,RL
28,557,202.463,201.90599999999998,1,68,101006,2bk,RL
29,671,205.149,204.47799999999998,1,69,101006,2bk,RL
30,852,253.484,252.632,1,83,101006,2bk,RL
31,1370,256.574,255.204,1,84,101006,2bk,RL
32,716,258.493,257.777,1,85,101006,2bk,RL
33,652,260.988,260.336,1,86,101006,2bk,RL
34,768,263.663,262.895,0,87,101006,2bk,RL
35,550,266.004,265.454,0,88,101006,2bk,RL
36,550,268.57599999999996,268.026,1,89,101006,2bk,RL
37,608,271.20599999999996,270.598,1,90,101006,2bk,RL
38,628,273.79900000000004,273.171,1,91,101006,2bk,RL
39,639,276.382,275.743,1,92,101006,2bk,RL
0,1313,40.018,38.705,1,14,101107,0bk,RL
1,1428,42.705,41.277,1,15,101107,0bk,RL
2,784,44.63399999999999,43.85,1,16,101107,0bk,RL
3,770,47.192,46.422,1,17,101107,0bk,RL
4,991,49.985,48.994,0,18,101107,0bk,RL
5,906,52.472,51.566,1,19,101107,0bk,RL
6,727,54.86600000000001,54.138999999999996,1,20,101107,0bk,RL
7,1228,57.93899999999999,56.711000000000006,1,21,101107,0bk,RL
8,1032,60.315,59.283,1,22,101107,0bk,RL
9,757,62.613,61.856,1,23,101107,0bk,RL
10,1343,111.339,109.99600000000001,1,37,101107,0bk,RL
11,843,113.412,112.569,1,38,101107,0bk,RL
12,664,115.792,115.12799999999999,1,39,101107,0bk,RL
13,580,118.26700000000001,117.68700000000001,1,40,101107,0bk,RL
14,855,121.101,120.24600000000001,1,41,101107,0bk,RL
15,720,123.525,122.805,1,42,101107,0bk,RL
16,514,125.87799999999999,125.36399999999999,1,43,101107,0bk,RL
17,1240,129.162,127.92200000000001,1,44,101107,0bk,RL
18,1020,131.501,130.481,0,45,101107,0bk,RL
19,920,133.974,133.054,1,46,101107,0bk,RL
20,0,-90.13799999999999,153.126,0,49,101107,0bk,RL
21,1686,157.384,155.69799999999998,0,50,101107,0bk,RL
22,826,159.083,158.257,1,51,101107,0bk,RL
23,997,161.826,160.829,1,52,101107,0bk,RL
24,728,164.13,163.40200000000002,1,53,101107,0bk,RL
25,867,166.84099999999998,165.97400000000002,1,54,101107,0bk,RL
26,608,169.15400000000002,168.546,1,55,101107,0bk,RL
27,986,172.105,171.11900000000003,1,56,101107,0bk,RL
28,915,174.606,173.69099999999997,1,57,101107,0bk,RL
29,898,177.16099999999997,176.263,1,58,101107,0bk,RL
30,840,225.417,224.577,1,72,101107,0bk,RL
31,506,227.669,227.16299999999998,1,73,101107,0bk,RL
32,920,230.642,229.722,1,74,101107,0bk,RL
33,664,232.97099999999998,232.30700000000002,1,75,101107,0bk,RL
34,574,235.467,234.893,1,76,101107,0bk,RL
35,549,238.028,237.479,1,77,101107,0bk,RL
36,533,240.571,240.03799999999998,1,78,101107,0bk,RL
37,664,243.261,242.597,1,79,101107,0bk,RL
38,526,245.68099999999998,245.155,1,80,101107,0bk,RL
39,509,248.22299999999998,247.71400000000003,1,81,101107,0bk,RL
0,0,-90.13799999999999,10.57,0,3,101107,2bk,RL
1,1109,14.251,13.142000000000001,1,4,101107,2bk,RL
2,1124,16.825,15.700999999999999,0,5,101107,2bk,RL
3,1262,19.535,18.273,0,6,101107,2bk,RL
4,982,21.826999999999998,20.845,1,7,101107,2bk,RL
5,724,24.128,23.404,1,8,101107,2bk,RL
6,770,26.733,25.963,0,9,101107,2bk,RL
7,903,29.425,28.522,1,10,101107,2bk,RL
8,1444,32.525,31.081,1,11,101107,2bk,RL
9,529,34.169000000000004,33.64,1,12,101107,2bk,RL
10,0,-90.13799999999999,81.914,0,26,101107,2bk,RL
11,1503,85.976,84.473,1,27,101107,2bk,RL
12,1033,88.066,87.03299999999999,1,28,101107,2bk,RL
13,1235,90.82600000000001,89.59100000000001,0,29,101107,2bk,RL
14,698,92.848,92.15,0,30,101107,2bk,RL
15,1016,95.725,94.709,1,31,101107,2bk,RL
16,895,98.163,97.26799999999999,1,32,101107,2bk,RL
17,703,100.53,99.82700000000001,1,33,101107,2bk,RL
18,826,103.212,102.38600000000001,1,34,101107,2bk,RL
19,810,105.755,104.945,1,35,101107,2bk,RL
20,1784,183.112,181.328,1,60,101107,2bk,RL
21,801,184.701,183.9,1,61,101107,2bk,RL
22,627,187.09900000000002,186.472,1,62,101107,2bk,RL
23,1111,190.15599999999998,189.045,1,63,101107,2bk,RL
24,806,192.423,191.61700000000002,0,64,101107,2bk,RL
25,1287,195.476,194.18900000000002,1,65,101107,2bk,RL
26,1116,197.878,196.762,1,66,101107,2bk,RL
27,1270,200.604,199.334,1,67,101107,2bk,RL
28,879,202.785,201.90599999999998,1,68,101107,2bk,RL
29,813,205.305,204.49200000000002,1,69,101107,2bk,RL
30,1540,254.31900000000002,252.77900000000002,1,83,101107,2bk,RL
31,539,255.89,255.351,1,84,101107,2bk,RL
32,731,258.655,257.92400000000004,1,85,101107,2bk,RL
33,680,261.176,260.496,1,86,101107,2bk,RL
34,1156,264.224,263.068,0,87,101107,2bk,RL
35,812,266.439,265.627,0,88,101107,2bk,RL
36,635,268.835,268.2,1,89,101107,2bk,RL
37,551,271.31,270.759,1,90,101107,2bk,RL
38,0,-90.13799999999999,273.33099999999996,0,91,101107,2bk,RL
39,1679,277.582,275.903,1,92,101107,2bk,RL
0,1181,39.872,38.691,1,14,101309,0bk,RL
1,561,41.824,41.263000000000005,1,15,101309,0bk,RL
2,643,44.478,43.835,1,16,101309,0bk,RL
3,589,46.997,46.408,1,17,101309,0bk,RL
4,535,49.515,48.98,1,18,101309,0bk,RL
5,0,-261.802,51.552,0,19,101309,0bk,RL
6,1027,55.152,54.125,1,20,101309,0bk,RL
7,904,57.601000000000006,56.696999999999996,0,21,101309,0bk,RL
8,1672,60.941,59.269,1,22,101309,0bk,RL
9,1353,63.193999999999996,61.841,1,23,101309,0bk,RL
10,1573,111.555,109.98200000000001,0,37,101309,0bk,RL
11,1416,113.97,112.554,1,38,101309,0bk,RL
12,1301,116.414,115.113,1,39,101309,0bk,RL
13,1056,118.728,117.67200000000001,1,40,101309,0bk,RL
14,994,121.238,120.244,0,41,101309,0bk,RL
15,902,123.705,122.803,1,42,101309,0bk,RL
16,1437,126.79899999999999,125.36200000000001,1,43,101309,0bk,RL
17,945,128.866,127.921,1,44,101309,0bk,RL
18,925,131.405,130.48,0,45,101309,0bk,RL
19,1118,134.158,133.04,1,46,101309,0bk,RL
20,1145,154.256,153.111,1,49,101309,0bk,RL
21,674,156.357,155.683,1,50,101309,0bk,RL
22,618,158.873,158.255,1,51,101309,0bk,RL
23,644,161.472,160.828,1,52,101309,0bk,RL
24,589,163.989,163.4,1,53,101309,0bk,RL
25,821,166.793,165.972,1,54,101309,0bk,RL
26,639,169.18400000000003,168.545,1,55,101309,0bk,RL
27,759,171.87599999999998,171.11700000000002,1,56,101309,0bk,RL
28,668,174.357,173.68900000000002,1,57,101309,0bk,RL
29,1019,177.28,176.261,1,58,101309,0bk,RL
30,1191,225.739,224.548,1,72,101309,0bk,RL
31,553,227.687,227.13400000000001,1,73,101309,0bk,RL
32,612,230.305,229.69299999999998,1,74,101309,0bk,RL
33,693,232.972,232.27900000000002,1,75,101309,0bk,RL
34,675,235.53900000000002,234.864,1,76,101309,0bk,RL
35,698,238.13400000000001,237.43599999999998,1,77,101309,0bk,RL
36,578,240.57299999999998,239.995,1,78,101309,0bk,RL
37,516,243.07,242.554,1,79,101309,0bk,RL
38,583,245.696,245.113,1,80,101309,0bk,RL
39,613,248.285,247.672,1,81,101309,0bk,RL
0,0,-261.802,10.556,0,3,101309,2bk,RL
1,1756,14.884,13.128,1,4,101309,2bk,RL
2,0,-261.802,15.687000000000001,0,5,101309,2bk,RL
3,1868,20.127,18.259,1,6,101309,2bk,RL
4,1616,22.448,20.831999999999997,1,7,101309,2bk,RL
5,1121,24.511,23.39,1,8,101309,2bk,RL
6,1251,27.2,25.949,1,9,101309,2bk,RL
7,1319,29.826999999999998,28.508000000000003,1,10,101309,2bk,RL
8,1622,32.69,31.068,1,11,101309,2bk,RL
9,1000,34.626,33.626,1,12,101309,2bk,RL
10,1310,83.21,81.9,1,26,101309,2bk,RL
11,793,85.25200000000001,84.459,1,27,101309,2bk,RL
12,1333,88.351,87.01799999999999,1,28,101309,2bk,RL
13,817,90.39399999999999,89.57700000000001,1,29,101309,2bk,RL
14,1419,93.555,92.13600000000001,1,30,101309,2bk,RL
15,1390,96.085,94.695,0,31,101309,2bk,RL
16,1275,98.529,97.25399999999999,1,32,101309,2bk,RL
17,1134,100.947,99.81299999999999,1,33,101309,2bk,RL
18,514,102.88600000000001,102.37200000000001,1,34,101309,2bk,RL
19,1549,106.48,104.931,1,35,101309,2bk,RL
20,1704,183.03,181.326,1,60,101309,2bk,RL
21,1067,184.965,183.898,1,61,101309,2bk,RL
22,679,187.15,186.47099999999998,1,62,101309,2bk,RL
23,1469,190.512,189.043,1,63,101309,2bk,RL
24,713,192.328,191.615,0,64,101309,2bk,RL
25,1366,195.553,194.187,0,65,101309,2bk,RL
26,1912,198.672,196.76,1,66,101309,2bk,RL
27,1581,200.91299999999998,199.332,1,67,101309,2bk,RL
28,1151,203.055,201.90400000000002,1,68,101309,2bk,RL
29,1288,205.765,204.477,0,69,101309,2bk,RL
30,1583,254.333,252.75,1,83,101309,2bk,RL
31,1495,256.817,255.322,1,84,101309,2bk,RL
32,1535,259.43,257.895,1,85,101309,2bk,RL
33,1457,261.92400000000004,260.467,1,86,101309,2bk,RL
34,514,263.553,263.039,1,87,101309,2bk,RL
35,1515,267.11400000000003,265.599,1,88,101309,2bk,RL
36,1429,269.6,268.171,1,89,101309,2bk,RL
37,1334,272.077,270.743,1,90,101309,2bk,RL
38,1403,274.718,273.315,1,91,101309,2bk,RL
39,1342,277.22900000000004,275.887,1,92,101309,2bk,RL
0,0,-205.755,38.704,0,14,101410,0bk,RL
1,1361,42.637,41.276,0,15,101410,0bk,RL
2,1252,45.101000000000006,43.849,1,16,101410,0bk,RL
3,812,47.233000000000004,46.42100000000001,1,17,101410,0bk,RL
4,1289,50.282,48.993,1,18,101410,0bk,RL
5,908,52.474,51.566,1,19,101410,0bk,RL
6,572,54.71,54.138000000000005,1,20,101410,0bk,RL
7,559,57.269,56.71,1,21,101410,0bk,RL
8,1501,60.783,59.282,1,22,101410,0bk,RL
9,733,62.588,61.855,1,23,101410,0bk,RL
10,0,-205.755,109.995,0,37,101410,0bk,RL
11,704,113.271,112.56700000000001,1,38,101410,0bk,RL
12,707,115.834,115.12700000000001,1,39,101410,0bk,RL
13,937,118.62200000000001,117.685,1,40,101410,0bk,RL
14,629,120.874,120.245,1,41,101410,0bk,RL
15,1250,124.053,122.803,1,42,101410,0bk,RL
16,652,126.014,125.36200000000001,1,43,101410,0bk,RL
17,1465,129.386,127.921,1,44,101410,0bk,RL
18,794,131.274,130.48,1,45,101410,0bk,RL
19,735,133.787,133.05200000000002,1,46,101410,0bk,RL
20,803,153.92700000000002,153.124,1,49,101410,0bk,RL
21,932,156.628,155.696,1,50,101410,0bk,RL
22,822,159.077,158.255,1,51,101410,0bk,RL
23,872,161.7,160.828,1,52,101410,0bk,RL
24,534,163.93400000000003,163.4,1,53,101410,0bk,RL
25,882,166.854,165.972,1,54,101410,0bk,RL
26,737,169.282,168.545,1,55,101410,0bk,RL
27,733,171.85,171.11700000000002,1,56,101410,0bk,RL
28,603,174.292,173.68900000000002,1,57,101410,0bk,RL
29,459,176.72,176.261,1,58,101410,0bk,RL
30,1407,225.995,224.588,1,72,101410,0bk,RL
31,533,227.707,227.174,1,73,101410,0bk,RL
32,466,230.199,229.733,1,74,101410,0bk,RL
33,479,232.78400000000002,232.305,1,75,101410,0bk,RL
34,772,235.66299999999998,234.891,1,76,101410,0bk,RL
35,776,238.252,237.476,1,77,101410,0bk,RL
36,593,240.628,240.035,1,78,101410,0bk,RL
37,1671,244.265,242.59400000000002,1,79,101410,0bk,RL
38,614,245.767,245.153,1,80,101410,0bk,RL
39,1043,248.755,247.71200000000002,1,81,101410,0bk,RL
0,1279,11.847999999999999,10.569,1,3,101410,2bk,RL
1,1201,14.342,13.140999999999998,1,4,101410,2bk,RL
2,1619,17.319000000000003,15.7,0,5,101410,2bk,RL
3,1917,20.19,18.273,1,6,101410,2bk,RL
4,1082,21.927,20.845,1,7,101410,2bk,RL
5,1894,25.298000000000002,23.404,1,8,101410,2bk,RL
6,0,-205.755,25.963,0,9,101410,2bk,RL
7,30,28.552,28.522,1,10,101410,2bk,RL
8,1935,33.016,31.081,1,11,101410,2bk,RL
9,1162,34.802,33.64,1,12,101410,2bk,RL
10,1703,83.616,81.913,1,26,101410,2bk,RL
11,971,85.443,84.47200000000001,1,27,101410,2bk,RL
12,1505,88.536,87.031,1,28,101410,2bk,RL
13,1063,90.65299999999999,89.59,1,29,101410,2bk,RL
14,1895,94.044,92.149,1,30,101410,2bk,RL
15,1171,95.87899999999999,94.708,0,31,101410,2bk,RL
16,969,98.236,97.26700000000001,1,32,101410,2bk,RL
17,1174,101.0,99.82600000000001,1,33,101410,2bk,RL
18,531,102.916,102.385,1,34,101410,2bk,RL
19,736,105.68,104.944,1,35,101410,2bk,RL
20,1398,182.72400000000002,181.326,1,60,101410,2bk,RL
21,898,184.796,183.898,1,61,101410,2bk,RL
22,730,187.201,186.47099999999998,1,62,101410,2bk,RL
23,866,189.90900000000002,189.043,1,63,101410,2bk,RL
24,1655,193.27,191.615,0,64,101410,2bk,RL
25,1993,196.18,194.187,1,65,101410,2bk,RL
26,802,197.575,196.773,1,66,101410,2bk,RL
27,854,200.199,199.345,1,67,101410,2bk,RL
28,1513,203.44400000000002,201.93099999999998,1,68,101410,2bk,RL
29,1278,205.795,204.517,1,69,101410,2bk,RL
30,1620,254.41,252.79,1,83,101410,2bk,RL
31,1392,256.754,255.362,0,84,101410,2bk,RL
32,1647,259.595,257.948,1,85,101410,2bk,RL
33,846,261.366,260.52,1,86,101410,2bk,RL
34,754,263.834,263.08,1,87,101410,2bk,RL
35,0,-205.755,265.652,0,88,101410,2bk,RL
36,743,268.967,268.224,1,89,101410,2bk,RL
37,1454,272.25,270.796,1,90,101410,2bk,RL
38,1706,275.074,273.368,1,91,101410,2bk,RL
39,940,276.881,275.941,1,92,101410,2bk,RL
0,909,39.76,38.851,1,14,101915,0bk,RL
1,961,42.38399999999999,41.423,1,15,101915,0bk,RL
2,921,44.943000000000005,44.022,1,16,101915,0bk,RL
3,973,47.593999999999994,46.621,1,17,101915,0bk,RL
4,973,50.167,49.193999999999996,1,18,101915,0bk,RL
5,660,52.426,51.766000000000005,1,19,101915,0bk,RL
6,665,55.03,54.365,1,20,101915,0bk,RL
7,801,57.738,56.937,1,21,101915,0bk,RL
8,977,60.486000000000004,59.50899999999999,1,22,101915,0bk,RL
9,1039,63.147,62.108000000000004,1,23,101915,0bk,RL
10,1906,112.34100000000001,110.435,0,37,101915,0bk,RL
11,1069,114.103,113.03399999999999,1,38,101915,0bk,RL
12,1227,116.86,115.633,1,39,101915,0bk,RL
13,1113,119.33200000000001,118.219,1,40,101915,0bk,RL
14,722,121.51299999999999,120.791,0,41,101915,0bk,RL
15,916,124.29299999999999,123.37700000000001,1,42,101915,0bk,RL
16,1229,127.165,125.936,1,43,101915,0bk,RL
17,934,129.429,128.495,1,44,101915,0bk,RL
18,909,131.963,131.054,0,45,101915,0bk,RL
19,1006,134.645,133.639,1,46,101915,0bk,RL
20,845,154.583,153.738,1,49,101915,0bk,RL
21,695,157.005,156.31,1,50,101915,0bk,RL
22,735,159.631,158.89600000000002,1,51,101915,0bk,RL
23,660,162.128,161.468,1,52,101915,0bk,RL
24,751,164.81799999999998,164.067,1,53,101915,0bk,RL
25,747,167.4,166.653,1,54,101915,0bk,RL
26,949,170.174,169.225,1,55,101915,0bk,RL
27,583,172.393,171.81,1,56,101915,0bk,RL
28,636,175.019,174.38299999999998,1,57,101915,0bk,RL
29,699,177.65400000000002,176.955,1,58,101915,0bk,RL
30,721,226.11,225.389,1,72,101915,0bk,RL
31,567,228.541,227.97400000000002,1,73,101915,0bk,RL
32,560,231.093,230.533,1,74,101915,0bk,RL
33,548,233.68,233.132,1,75,101915,0bk,RL
34,571,236.28900000000002,235.718,1,76,101915,0bk,RL
35,547,238.85,238.303,1,77,101915,0bk,RL
36,553,241.415,240.862,1,78,101915,0bk,RL
37,669,244.09,243.421,1,79,101915,0bk,RL
38,503,246.483,245.98,1,80,101915,0bk,RL
39,518,249.05700000000002,248.53900000000002,1,81,101915,0bk,RL
0,441,11.024000000000001,10.583,1,3,101915,2bk,RL
1,1226,14.408,13.182,1,4,101915,2bk,RL
2,1294,17.061,15.767000000000001,0,5,101915,2bk,RL
3,0,-226.65400000000002,18.339000000000002,0,6,101915,2bk,RL
4,1196,22.134,20.938000000000002,1,7,101915,2bk,RL
5,1790,25.314,23.524,1,8,101915,2bk,RL
6,0,-226.65400000000002,26.083000000000002,0,9,101915,2bk,RL
7,0,-226.65400000000002,28.642,0,10,101915,2bk,RL
8,0,-226.65400000000002,31.201,0,11,101915,2bk,RL
9,1033,34.793,33.76,1,12,101915,2bk,RL
10,467,82.67399999999999,82.20700000000001,1,26,101915,2bk,RL
11,1630,86.42200000000001,84.792,1,27,101915,2bk,RL
12,1141,88.53200000000001,87.391,1,28,101915,2bk,RL
13,1562,91.512,89.95,1,29,101915,2bk,RL
14,1585,94.094,92.509,1,30,101915,2bk,RL
15,1251,96.319,95.068,1,31,101915,2bk,RL
16,1354,98.98200000000001,97.62799999999999,1,32,101915,2bk,RL
17,1541,101.76700000000001,100.226,1,33,101915,2bk,RL
18,1155,103.94,102.785,1,34,101915,2bk,RL
19,933,106.31700000000001,105.384,1,35,101915,2bk,RL
20,1383,183.429,182.046,1,60,101915,2bk,RL
21,487,185.132,184.645,1,61,101915,2bk,RL
22,1324,188.541,187.217,1,62,101915,2bk,RL
23,808,190.62400000000002,189.81599999999997,1,63,101915,2bk,RL
24,991,193.38,192.389,0,64,101915,2bk,RL
25,1173,196.13400000000001,194.96099999999998,1,65,101915,2bk,RL
26,563,198.123,197.56,1,66,101915,2bk,RL
27,1438,201.57,200.132,1,67,101915,2bk,RL
28,1055,203.773,202.718,1,68,101915,2bk,RL
29,637,205.94099999999997,205.304,0,69,101915,2bk,RL
30,1752,255.37,253.618,1,83,101915,2bk,RL
31,1293,257.469,256.176,1,84,101915,2bk,RL
32,1282,260.07,258.788,1,85,101915,2bk,RL
33,1077,262.45099999999996,261.374,1,86,101915,2bk,RL
34,775,264.721,263.94599999999997,1,87,101915,2bk,RL
35,1058,267.564,266.506,0,88,101915,2bk,RL
36,847,269.938,269.091,1,89,101915,2bk,RL
37,1035,272.698,271.663,1,90,101915,2bk,RL
38,1320,275.555,274.235,1,91,101915,2bk,RL
39,1083,277.89099999999996,276.808,1,92,101915,2bk,RL
0,725,39.416,38.691,1,14,102008,0bk,RL
1,699,41.961999999999996,41.263000000000005,1,15,102008,0bk,RL
2,528,44.364,43.836000000000006,1,16,102008,0bk,RL
3,595,47.003,46.408,1,17,102008,0bk,RL
4,895,49.875,48.98,0,18,102008,0bk,RL
5,961,52.513999999999996,51.553000000000004,1,19,102008,0bk,RL
6,763,54.888000000000005,54.125,1,20,102008,0bk,RL
7,851,57.548,56.696999999999996,1,21,102008,0bk,RL
8,752,60.021,59.269,1,22,102008,0bk,RL
9,549,62.391000000000005,61.842,1,23,102008,0bk,RL
10,0,-170.75400000000002,109.98200000000001,0,37,102008,0bk,RL
11,921,113.463,112.542,1,38,102008,0bk,RL
12,823,115.92299999999999,115.1,1,39,102008,0bk,RL
13,816,118.475,117.65899999999999,1,40,102008,0bk,RL
14,602,120.833,120.23100000000001,1,41,102008,0bk,RL
15,732,123.522,122.79,1,42,102008,0bk,RL
16,1030,126.37899999999999,125.34899999999999,1,43,102008,0bk,RL
17,570,128.47799999999998,127.90799999999999,1,44,102008,0bk,RL
18,838,131.305,130.467,1,45,102008,0bk,RL
19,664,133.69,133.026,1,46,102008,0bk,RL
20,717,153.815,153.09799999999998,1,49,102008,0bk,RL
21,1056,156.726,155.67,1,50,102008,0bk,RL
22,503,158.745,158.24200000000002,1,51,102008,0bk,RL
23,713,161.528,160.815,1,52,102008,0bk,RL
24,596,163.983,163.387,1,53,102008,0bk,RL
25,642,166.601,165.959,1,54,102008,0bk,RL
26,670,169.202,168.532,1,55,102008,0bk,RL
27,619,171.72299999999998,171.104,1,56,102008,0bk,RL
28,597,174.273,173.676,1,57,102008,0bk,RL
29,732,176.98,176.248,1,58,102008,0bk,RL
30,809,225.331,224.52200000000002,1,72,102008,0bk,RL
31,475,227.55599999999998,227.081,1,73,102008,0bk,RL
32,536,230.176,229.64,1,74,102008,0bk,RL
33,597,232.796,232.199,1,75,102008,0bk,RL
34,440,235.19799999999998,234.75799999999998,1,76,102008,0bk,RL
35,504,237.821,237.317,1,77,102008,0bk,RL
36,883,240.75900000000001,239.87599999999998,1,78,102008,0bk,RL
37,663,243.09799999999998,242.435,1,79,102008,0bk,RL
38,612,245.606,244.99400000000003,1,80,102008,0bk,RL
39,551,248.104,247.553,1,81,102008,0bk,RL
0,314,10.87,10.556,1,3,102008,2bk,RL
1,809,13.937000000000001,13.128,1,4,102008,2bk,RL
2,634,16.320999999999998,15.687000000000001,0,5,102008,2bk,RL
3,849,19.108,18.259,1,6,102008,2bk,RL
4,828,21.66,20.831999999999997,1,7,102008,2bk,RL
5,898,24.289,23.391,1,8,102008,2bk,RL
6,1056,27.006,25.95,1,9,102008,2bk,RL
7,899,29.408,28.509,1,10,102008,2bk,RL
8,1059,32.126999999999995,31.068,1,11,102008,2bk,RL
9,831,34.458,33.626999999999995,1,12,102008,2bk,RL
10,1201,83.101,81.9,1,26,102008,2bk,RL
11,992,85.45100000000001,84.459,1,27,102008,2bk,RL
12,698,87.71600000000001,87.01799999999999,1,28,102008,2bk,RL
13,945,90.522,89.57700000000001,1,29,102008,2bk,RL
14,1169,93.305,92.13600000000001,1,30,102008,2bk,RL
15,1252,95.947,94.695,1,31,102008,2bk,RL
16,1099,98.353,97.25399999999999,1,32,102008,2bk,RL
17,911,100.72399999999999,99.81299999999999,1,33,102008,2bk,RL
18,685,103.057,102.37200000000001,1,34,102008,2bk,RL
19,765,105.696,104.931,1,35,102008,2bk,RL
20,859,182.172,181.313,1,60,102008,2bk,RL
21,949,184.834,183.885,1,61,102008,2bk,RL
22,515,186.97299999999998,186.458,1,62,102008,2bk,RL
23,627,189.657,189.03,1,63,102008,2bk,RL
24,963,192.565,191.602,1,64,102008,2bk,RL
25,882,195.05599999999998,194.174,1,65,102008,2bk,RL
26,704,197.451,196.747,1,66,102008,2bk,RL
27,1279,200.59799999999998,199.31900000000002,1,67,102008,2bk,RL
28,865,202.75599999999997,201.891,1,68,102008,2bk,RL
29,782,205.24599999999998,204.46400000000003,1,69,102008,2bk,RL
30,1155,253.77200000000002,252.61700000000002,1,83,102008,2bk,RL
31,1213,256.403,255.19,1,84,102008,2bk,RL
32,821,258.58299999999997,257.762,1,85,102008,2bk,RL
33,765,261.086,260.32099999999997,1,86,102008,2bk,RL
34,545,263.438,262.893,1,87,102008,2bk,RL
35,1070,266.522,265.452,1,88,102008,2bk,RL
36,1104,269.128,268.024,1,89,102008,2bk,RL
37,691,271.288,270.597,1,90,102008,2bk,RL
38,1005,274.17400000000004,273.16900000000004,1,91,102008,2bk,RL
39,757,276.498,275.741,1,92,102008,2bk,RL
0,1667,40.371,38.704,1,14,102311,0bk,RL
1,846,42.123000000000005,41.277,1,15,102311,0bk,RL
2,1130,44.979,43.849,1,16,102311,0bk,RL
3,698,47.119,46.42100000000001,1,17,102311,0bk,RL
4,0,-265.157,48.993,0,18,102311,0bk,RL
5,934,52.5,51.566,1,19,102311,0bk,RL
6,932,55.07,54.138000000000005,1,20,102311,0bk,RL
7,1937,58.647,56.71,1,21,102311,0bk,RL
8,1337,60.62,59.283,1,22,102311,0bk,RL
9,820,62.675,61.855,1,23,102311,0bk,RL
10,1530,111.525,109.995,0,37,102311,0bk,RL
11,646,113.20100000000001,112.555,1,38,102311,0bk,RL
12,0,-265.157,115.113,0,39,102311,0bk,RL
13,1644,119.316,117.67200000000001,1,40,102311,0bk,RL
14,1010,121.255,120.245,0,41,102311,0bk,RL
15,896,123.7,122.804,1,42,102311,0bk,RL
16,956,126.319,125.363,1,43,102311,0bk,RL
17,1672,129.593,127.921,1,44,102311,0bk,RL
18,784,131.264,130.48,0,45,102311,0bk,RL
19,512,133.55200000000002,133.04,1,46,102311,0bk,RL
20,778,153.889,153.111,1,49,102311,0bk,RL
21,990,156.674,155.684,1,50,102311,0bk,RL
22,1296,159.55200000000002,158.256,1,51,102311,0bk,RL
23,853,161.681,160.828,1,52,102311,0bk,RL
24,900,164.3,163.4,1,53,102311,0bk,RL
25,607,166.58,165.97299999999998,1,54,102311,0bk,RL
26,658,169.203,168.545,1,55,102311,0bk,RL
27,682,171.799,171.11700000000002,1,56,102311,0bk,RL
28,558,174.248,173.69,1,57,102311,0bk,RL
29,839,177.101,176.262,1,58,102311,0bk,RL
30,1009,225.545,224.53599999999997,1,72,102311,0bk,RL
31,759,227.854,227.095,1,73,102311,0bk,RL
32,836,230.49,229.65400000000002,1,74,102311,0bk,RL
33,1489,233.702,232.213,1,75,102311,0bk,RL
34,809,235.581,234.77200000000002,1,76,102311,0bk,RL
35,1429,238.76,237.331,1,77,102311,0bk,RL
36,1161,241.05,239.889,1,78,102311,0bk,RL
37,677,243.125,242.44799999999998,1,79,102311,0bk,RL
38,491,245.498,245.007,1,80,102311,0bk,RL
39,746,248.312,247.56599999999997,1,81,102311,0bk,RL
0,1025,11.594000000000001,10.569,1,3,102311,2bk,RL
1,852,13.993,13.140999999999998,1,4,102311,2bk,RL
2,771,16.471,15.7,0,5,102311,2bk,RL
3,1208,19.480999999999998,18.273,0,6,102311,2bk,RL
4,1147,21.991999999999997,20.845,1,7,102311,2bk,RL
5,1476,24.88,23.404,1,8,102311,2bk,RL
6,0,-265.157,25.963,0,9,102311,2bk,RL
7,1286,29.808000000000003,28.522,1,10,102311,2bk,RL
8,782,31.863000000000003,31.081,0,11,102311,2bk,RL
9,1453,35.093,33.64,1,12,102311,2bk,RL
10,1317,83.23,81.913,1,26,102311,2bk,RL
11,966,85.43799999999999,84.47200000000001,1,27,102311,2bk,RL
12,1224,88.255,87.031,1,28,102311,2bk,RL
13,693,90.28299999999999,89.59,1,29,102311,2bk,RL
14,0,-265.157,92.149,0,30,102311,2bk,RL
15,1345,96.053,94.708,1,31,102311,2bk,RL
16,1074,98.34100000000001,97.26700000000001,1,32,102311,2bk,RL
17,1321,101.147,99.82600000000001,1,33,102311,2bk,RL
18,0,-265.157,102.385,0,34,102311,2bk,RL
19,738,105.682,104.944,1,35,102311,2bk,RL
20,1021,182.34799999999998,181.327,1,60,102311,2bk,RL
21,1087,184.986,183.899,1,61,102311,2bk,RL
22,459,186.93,186.47099999999998,1,62,102311,2bk,RL
23,822,189.865,189.043,1,63,102311,2bk,RL
24,1047,192.66299999999998,191.61599999999999,0,64,102311,2bk,RL
25,1045,195.233,194.188,0,65,102311,2bk,RL
26,1087,197.847,196.76,1,66,102311,2bk,RL
27,1303,200.636,199.333,0,67,102311,2bk,RL
28,1077,202.982,201.905,1,68,102311,2bk,RL
29,1201,205.678,204.477,1,69,102311,2bk,RL
30,1437,254.06799999999998,252.63099999999997,1,83,102311,2bk,RL
31,1448,256.651,255.203,1,84,102311,2bk,RL
32,848,258.624,257.776,1,85,102311,2bk,RL
33,870,261.218,260.348,1,86,102311,2bk,RL
34,713,263.62,262.907,1,87,102311,2bk,RL
35,0,-265.157,265.47900000000004,0,88,102311,2bk,RL
36,543,268.594,268.051,1,89,102311,2bk,RL
37,717,271.341,270.624,1,90,102311,2bk,RL
38,809,274.005,273.19599999999997,0,91,102311,2bk,RL
39,678,276.44599999999997,275.768,1,92,102311,2bk,RL
0,871,39.562,38.691,1,14,102816,0bk,RL
1,884,42.147,41.263000000000005,1,15,102816,0bk,RL
2,897,44.732,43.835,1,16,102816,0bk,RL
3,816,47.224,46.408,1,17,102816,0bk,RL
4,1053,50.033,48.98,1,18,102816,0bk,RL
5,763,52.315,51.552,1,19,102816,0bk,RL
6,868,54.993,54.125,1,20,102816,0bk,RL
7,797,57.494,56.696999999999996,1,21,102816,0bk,RL
8,873,60.141999999999996,59.269,1,22,102816,0bk,RL
9,998,62.839,61.841,1,23,102816,0bk,RL
10,1170,111.152,109.98200000000001,1,37,102816,0bk,RL
11,914,113.455,112.541,1,38,102816,0bk,RL
12,665,115.765,115.1,1,39,102816,0bk,RL
13,1163,118.822,117.65899999999999,1,40,102816,0bk,RL
14,1184,121.402,120.21799999999999,1,41,102816,0bk,RL
15,1024,123.801,122.777,1,42,102816,0bk,RL
16,920,126.256,125.336,1,43,102816,0bk,RL
17,1021,128.916,127.895,1,44,102816,0bk,RL
18,950,131.404,130.454,1,45,102816,0bk,RL
19,872,133.885,133.013,1,46,102816,0bk,RL
20,1272,154.356,153.084,1,49,102816,0bk,RL
21,1490,157.14700000000002,155.657,1,50,102816,0bk,RL
22,1135,159.351,158.216,1,51,102816,0bk,RL
23,897,161.685,160.78799999999998,1,52,102816,0bk,RL
24,783,164.143,163.36,1,53,102816,0bk,RL
25,983,166.916,165.933,1,54,102816,0bk,RL
26,996,169.50099999999998,168.505,1,55,102816,0bk,RL
27,833,171.89700000000002,171.06400000000002,1,56,102816,0bk,RL
28,709,174.345,173.636,1,57,102816,0bk,RL
29,735,176.93,176.195,1,58,102816,0bk,RL
30,1227,225.696,224.46900000000002,1,72,102816,0bk,RL
31,1100,228.128,227.028,1,73,102816,0bk,RL
32,872,230.459,229.58700000000002,1,74,102816,0bk,RL
33,757,232.903,232.146,1,75,102816,0bk,RL
34,740,235.445,234.705,1,76,102816,0bk,RL
35,969,238.233,237.264,1,77,102816,0bk,RL
36,941,240.764,239.82299999999998,1,78,102816,0bk,RL
37,782,243.16400000000002,242.382,1,79,102816,0bk,RL
38,763,245.704,244.94099999999997,1,80,102816,0bk,RL
39,804,248.303,247.49900000000002,1,81,102816,0bk,RL
0,0,-258.059,10.569,0,3,102816,2bk,RL
1,0,-258.059,13.128,0,4,102816,2bk,RL
2,1843,17.53,15.687000000000001,0,5,102816,2bk,RL
3,1962,20.221,18.259,0,6,102816,2bk,RL
4,1339,22.17,20.831,1,7,102816,2bk,RL
5,1392,24.781999999999996,23.39,1,8,102816,2bk,RL
6,0,-258.059,25.949,0,9,102816,2bk,RL
7,884,29.392,28.508000000000003,1,10,102816,2bk,RL
8,1359,32.426,31.066999999999997,0,11,102816,2bk,RL
9,1714,35.34,33.626,0,12,102816,2bk,RL
10,1686,83.586,81.9,1,26,102816,2bk,RL
11,1229,85.68799999999999,84.459,1,27,102816,2bk,RL
12,1651,88.669,87.01799999999999,1,28,102816,2bk,RL
13,1101,90.678,89.57700000000001,1,29,102816,2bk,RL
14,1674,93.81,92.13600000000001,0,30,102816,2bk,RL
15,1607,96.302,94.695,1,31,102816,2bk,RL
16,1308,98.56200000000001,97.25399999999999,1,32,102816,2bk,RL
17,1362,101.175,99.81299999999999,1,33,102816,2bk,RL
18,928,103.3,102.37200000000001,1,34,102816,2bk,RL
19,1146,106.07700000000001,104.931,1,35,102816,2bk,RL
20,1308,182.56799999999998,181.26,1,60,102816,2bk,RL
21,1533,185.365,183.832,1,61,102816,2bk,RL
22,1117,187.521,186.40400000000002,1,62,102816,2bk,RL
23,898,189.875,188.977,1,63,102816,2bk,RL
24,892,192.44099999999997,191.549,0,64,102816,2bk,RL
25,1680,195.801,194.12099999999998,0,65,102816,2bk,RL
26,1188,197.88099999999997,196.69299999999998,1,66,102816,2bk,RL
27,869,200.135,199.266,1,67,102816,2bk,RL
28,838,202.676,201.838,1,68,102816,2bk,RL
29,1016,205.426,204.41,1,69,102816,2bk,RL
30,0,-258.059,252.551,0,83,102816,2bk,RL
31,640,255.763,255.123,1,84,102816,2bk,RL
32,1425,259.12,257.695,1,85,102816,2bk,RL
33,985,261.253,260.268,1,86,102816,2bk,RL
34,735,263.562,262.827,1,87,102816,2bk,RL
35,1395,266.781,265.38599999999997,1,88,102816,2bk,RL
36,1171,269.129,267.95799999999997,1,89,102816,2bk,RL
37,1015,271.532,270.517,1,90,102816,2bk,RL
38,1035,274.124,273.089,1,91,102816,2bk,RL
39,1115,276.776,275.661,1,92,102816,2bk,RL
0,799,39.504,38.705,1,14,103111,0bk,RL
1,760,42.037,41.277,1,15,103111,0bk,RL
2,782,44.632,43.85,1,16,103111,0bk,RL
3,711,47.133,46.422,1,17,103111,0bk,RL
4,775,49.769,48.994,1,18,103111,0bk,RL
5,665,52.231,51.566,1,19,103111,0bk,RL
6,699,54.838,54.138999999999996,1,20,103111,0bk,RL
7,827,57.538000000000004,56.711000000000006,1,21,103111,0bk,RL
8,789,60.071999999999996,59.283,1,22,103111,0bk,RL
9,729,62.585,61.856,1,23,103111,0bk,RL
10,1552,111.54799999999999,109.99600000000001,0,37,103111,0bk,RL
11,1733,114.289,112.556,1,38,103111,0bk,RL
12,1318,116.432,115.11399999999999,1,39,103111,0bk,RL
13,819,118.492,117.67299999999999,1,40,103111,0bk,RL
14,957,121.20299999999999,120.24600000000001,0,41,103111,0bk,RL
15,1014,123.819,122.805,1,42,103111,0bk,RL
16,1243,126.60700000000001,125.36399999999999,0,43,103111,0bk,RL
17,1411,129.333,127.92200000000001,1,44,103111,0bk,RL
18,1023,131.504,130.481,1,45,103111,0bk,RL
19,1001,134.042,133.041,1,46,103111,0bk,RL
20,854,153.966,153.112,1,49,103111,0bk,RL
21,0,-243.83599999999998,155.685,0,50,103111,0bk,RL
22,820,159.077,158.257,1,51,103111,0bk,RL
23,537,161.35299999999998,160.816,1,52,103111,0bk,RL
24,661,164.049,163.388,1,53,103111,0bk,RL
25,1102,167.063,165.96099999999998,1,54,103111,0bk,RL
26,642,169.162,168.52,1,55,103111,0bk,RL
27,620,171.71200000000002,171.092,1,56,103111,0bk,RL
28,616,174.28,173.66400000000002,1,57,103111,0bk,RL
29,699,176.922,176.22299999999998,1,58,103111,0bk,RL
30,965,225.46200000000002,224.497,1,72,103111,0bk,RL
31,611,227.667,227.05599999999998,1,73,103111,0bk,RL
32,707,230.322,229.615,1,74,103111,0bk,RL
33,737,232.91099999999997,232.174,1,75,103111,0bk,RL
34,770,235.503,234.733,1,76,103111,0bk,RL
35,1001,238.293,237.292,1,77,103111,0bk,RL
36,906,240.757,239.851,1,78,103111,0bk,RL
37,703,243.113,242.41,1,79,103111,0bk,RL
38,542,245.511,244.96900000000002,1,80,103111,0bk,RL
39,552,248.08,247.528,1,81,103111,0bk,RL
0,0,-243.83599999999998,10.57,0,3,103111,2bk,RL
1,303,13.445,13.142000000000001,1,4,103111,2bk,RL
2,1162,16.863,15.700999999999999,0,5,103111,2bk,RL
3,921,19.194000000000003,18.273,0,6,103111,2bk,RL
4,977,21.822,20.845,1,7,103111,2bk,RL
5,966,24.37,23.404,1,8,103111,2bk,RL
6,1582,27.545,25.963,1,9,103111,2bk,RL
7,1532,30.054000000000002,28.522,0,10,103111,2bk,RL
8,1004,32.086,31.081999999999997,0,11,103111,2bk,RL
9,1400,35.04,33.64,0,12,103111,2bk,RL
10,776,82.69,81.914,1,26,103111,2bk,RL
11,588,85.061,84.473,1,27,103111,2bk,RL
12,715,87.74700000000001,87.03200000000001,1,28,103111,2bk,RL
13,596,90.18700000000001,89.59100000000001,1,29,103111,2bk,RL
14,977,93.12700000000001,92.15,1,30,103111,2bk,RL
15,1103,95.81200000000001,94.709,1,31,103111,2bk,RL
16,1374,98.64200000000001,97.26799999999999,1,32,103111,2bk,RL
17,1197,101.024,99.82700000000001,1,33,103111,2bk,RL
18,860,103.24600000000001,102.38600000000001,1,34,103111,2bk,RL
19,1014,105.959,104.945,1,35,103111,2bk,RL
20,1181,182.46900000000002,181.28799999999998,1,60,103111,2bk,RL
21,970,184.83,183.86,1,61,103111,2bk,RL
22,568,187.0,186.43200000000002,1,62,103111,2bk,RL
23,953,189.958,189.005,1,63,103111,2bk,RL
24,992,192.56900000000002,191.577,1,64,103111,2bk,RL
25,619,194.768,194.149,1,65,103111,2bk,RL
26,828,197.55,196.722,1,66,103111,2bk,RL
27,1004,200.298,199.294,1,67,103111,2bk,RL
28,1226,203.092,201.86599999999999,1,68,103111,2bk,RL
29,1173,205.611,204.438,1,69,103111,2bk,RL
30,1118,253.71099999999998,252.593,1,83,103111,2bk,RL
31,1050,256.20099999999996,255.15099999999998,1,84,103111,2bk,RL
32,1073,258.797,257.724,1,85,103111,2bk,RL
33,1152,261.448,260.296,1,86,103111,2bk,RL
34,1105,263.973,262.868,1,87,103111,2bk,RL
35,1413,266.85400000000004,265.441,1,88,103111,2bk,RL
36,957,268.97,268.013,1,89,103111,2bk,RL
37,931,271.503,270.572,1,90,103111,2bk,RL
38,1334,274.478,273.144,1,91,103111,2bk,RL
39,1171,276.888,275.717,1,92,103111,2bk,RL
0,856,39.533,38.677,1,14,103414,0bk,RL
1,789,42.038999999999994,41.25,1,15,103414,0bk,RL
2,898,44.72,43.821999999999996,1,16,103414,0bk,RL
3,580,46.974,46.394,1,17,103414,0bk,RL
4,830,49.797,48.967,1,18,103414,0bk,RL
5,847,52.386,51.538999999999994,1,19,103414,0bk,RL
6,666,54.777,54.111000000000004,1,20,103414,0bk,RL
7,677,57.36,56.683,1,21,103414,0bk,RL
8,959,60.215,59.256,1,22,103414,0bk,RL
9,669,62.497,61.828,1,23,103414,0bk,RL
10,883,110.851,109.96799999999999,1,37,103414,0bk,RL
11,770,113.29700000000001,112.527,1,38,103414,0bk,RL
12,1028,116.11399999999999,115.086,1,39,103414,0bk,RL
13,1142,118.787,117.645,1,40,103414,0bk,RL
14,828,121.03200000000001,120.204,1,41,103414,0bk,RL
15,1101,123.863,122.762,1,42,103414,0bk,RL
16,918,126.23899999999999,125.321,1,43,103414,0bk,RL
17,755,128.635,127.88,1,44,103414,0bk,RL
18,734,131.173,130.439,1,45,103414,0bk,RL
19,675,133.673,132.998,1,46,103414,0bk,RL
20,1414,154.471,153.05700000000002,1,49,103414,0bk,RL
21,1205,156.82,155.615,1,50,103414,0bk,RL
22,696,158.87,158.174,1,51,103414,0bk,RL
23,607,161.35399999999998,160.747,1,52,103414,0bk,RL
24,557,163.87599999999998,163.319,1,53,103414,0bk,RL
25,787,166.678,165.891,1,54,103414,0bk,RL
26,520,168.97,168.45,1,55,103414,0bk,RL
27,581,171.60299999999998,171.02200000000002,1,56,103414,0bk,RL
28,733,174.328,173.595,1,57,103414,0bk,RL
29,619,176.78599999999997,176.167,1,58,103414,0bk,RL
30,986,225.426,224.44,1,72,103414,0bk,RL
31,726,227.725,226.99900000000002,1,73,103414,0bk,RL
32,774,230.332,229.558,1,74,103414,0bk,RL
33,713,232.83,232.11700000000002,1,75,103414,0bk,RL
34,773,235.449,234.676,1,76,103414,0bk,RL
35,594,237.829,237.235,1,77,103414,0bk,RL
36,648,240.442,239.794,0,78,103414,0bk,RL
37,1493,243.84599999999998,242.35299999999998,1,79,103414,0bk,RL
38,545,245.457,244.912,1,80,103414,0bk,RL
39,743,248.21400000000003,247.47099999999998,1,81,103414,0bk,RL
0,744,11.3,10.556,1,3,103414,2bk,RL
1,601,13.729000000000001,13.128,1,4,103414,2bk,RL
2,1038,16.725,15.687000000000001,0,5,103414,2bk,RL
3,731,18.99,18.259,0,6,103414,2bk,RL
4,1250,22.068,20.818,1,7,103414,2bk,RL
5,1178,24.555,23.377,1,8,103414,2bk,RL
6,1396,27.331999999999997,25.936,0,9,103414,2bk,RL
7,1338,29.833000000000002,28.495,1,10,103414,2bk,RL
8,1394,32.448,31.054000000000002,0,11,103414,2bk,RL
9,798,34.411,33.613,1,12,103414,2bk,RL
10,0,-86.28200000000001,81.88600000000001,0,26,103414,2bk,RL
11,1164,85.609,84.445,1,27,103414,2bk,RL
12,1387,88.391,87.00399999999999,0,28,103414,2bk,RL
13,1093,90.656,89.56299999999999,1,29,103414,2bk,RL
14,1842,93.964,92.12200000000001,0,30,103414,2bk,RL
15,1413,96.094,94.681,0,31,103414,2bk,RL
16,898,98.13799999999999,97.24,1,32,103414,2bk,RL
17,737,100.536,99.79899999999999,1,33,103414,2bk,RL
18,559,102.917,102.35799999999999,1,34,103414,2bk,RL
19,618,105.535,104.917,1,35,103414,2bk,RL
20,0,-86.28200000000001,181.231,0,60,103414,2bk,RL
21,623,184.42700000000002,183.804,1,61,103414,2bk,RL
22,587,186.963,186.37599999999998,1,62,103414,2bk,RL
23,839,189.787,188.94799999999998,1,63,103414,2bk,RL
24,612,192.13299999999998,191.521,1,64,103414,2bk,RL
25,1043,195.136,194.093,1,65,103414,2bk,RL
26,1175,197.84,196.665,1,66,103414,2bk,RL
27,1023,200.26,199.237,1,67,103414,2bk,RL
28,1301,203.111,201.81,1,68,103414,2bk,RL
29,1258,205.64,204.382,1,69,103414,2bk,RL
30,1310,253.832,252.52200000000002,1,83,103414,2bk,RL
31,847,255.94099999999997,255.09400000000002,1,84,103414,2bk,RL
32,1213,258.866,257.653,1,85,103414,2bk,RL
33,714,260.926,260.212,1,86,103414,2bk,RL
34,611,263.395,262.784,1,87,103414,2bk,RL
35,1003,266.346,265.343,0,88,103414,2bk,RL
36,1532,269.434,267.902,1,89,103414,2bk,RL
37,1219,271.68,270.461,1,90,103414,2bk,RL
38,1215,274.248,273.033,1,91,103414,2bk,RL
39,1393,276.985,275.592,1,92,103414,2bk,RL
0,1146,39.836999999999996,38.691,1,14,103818,0bk,RL
1,701,41.964,41.263000000000005,1,15,103818,0bk,RL
2,379,44.214,43.835,1,16,103818,0bk,RL
3,619,47.026,46.407,1,17,103818,0bk,RL
4,623,49.603,48.98,1,18,103818,0bk,RL
5,604,52.156000000000006,51.552,1,19,103818,0bk,RL
6,532,54.656000000000006,54.123999999999995,1,20,103818,0bk,RL
7,940,57.637,56.696999999999996,1,21,103818,0bk,RL
8,1367,60.636,59.269,1,22,103818,0bk,RL
9,965,62.806000000000004,61.841,1,23,103818,0bk,RL
10,1199,111.181,109.98200000000001,1,37,103818,0bk,RL
11,1091,113.645,112.554,1,38,103818,0bk,RL
12,647,115.76,115.113,1,39,103818,0bk,RL
13,790,118.462,117.67200000000001,1,40,103818,0bk,RL
14,765,120.99600000000001,120.23100000000001,1,41,103818,0bk,RL
15,863,123.65299999999999,122.79,1,42,103818,0bk,RL
16,952,126.301,125.34899999999999,1,43,103818,0bk,RL
17,987,128.895,127.90799999999999,1,44,103818,0bk,RL
18,545,131.011,130.466,1,45,103818,0bk,RL
19,675,133.714,133.039,1,46,103818,0bk,RL
20,888,153.999,153.111,1,49,103818,0bk,RL
21,929,156.612,155.683,1,50,103818,0bk,RL
22,1497,159.752,158.255,1,51,103818,0bk,RL
23,890,161.717,160.827,1,52,103818,0bk,RL
24,736,164.136,163.4,1,53,103818,0bk,RL
25,838,166.81,165.972,1,54,103818,0bk,RL
26,730,169.274,168.544,1,55,103818,0bk,RL
27,631,171.748,171.11700000000002,1,56,103818,0bk,RL
28,584,174.273,173.68900000000002,1,57,103818,0bk,RL
29,749,176.997,176.248,1,58,103818,0bk,RL
30,724,225.245,224.521,0,72,103818,0bk,RL
31,1783,228.863,227.08,1,73,103818,0bk,RL
32,455,230.09400000000002,229.639,1,74,103818,0bk,RL
33,1069,233.267,232.19799999999998,1,75,103818,0bk,RL
34,1079,235.83599999999998,234.757,1,76,103818,0bk,RL
35,1026,238.342,237.31599999999997,1,77,103818,0bk,RL
36,1188,241.063,239.875,1,78,103818,0bk,RL
37,598,243.032,242.43400000000003,1,79,103818,0bk,RL
38,785,245.778,244.993,1,80,103818,0bk,RL
39,790,248.342,247.55200000000002,1,81,103818,0bk,RL
0,602,11.157,10.555,1,3,103818,2bk,RL
1,1570,14.698,13.128,1,4,103818,2bk,RL
2,1374,17.061,15.687000000000001,1,5,103818,2bk,RL
3,979,19.238,18.259,1,6,103818,2bk,RL
4,1006,21.837,20.831,1,7,103818,2bk,RL
5,872,24.261999999999997,23.39,1,8,103818,2bk,RL
6,1258,27.206999999999997,25.949,1,9,103818,2bk,RL
7,1398,29.906,28.508000000000003,1,10,103818,2bk,RL
8,552,31.619,31.066999999999997,0,11,103818,2bk,RL
9,878,34.504,33.626,0,12,103818,2bk,RL
10,1131,83.031,81.9,1,26,103818,2bk,RL
11,1416,85.875,84.459,1,27,103818,2bk,RL
12,1239,88.257,87.01799999999999,1,28,103818,2bk,RL
13,1123,90.7,89.57700000000001,1,29,103818,2bk,RL
14,1327,93.462,92.135,1,30,103818,2bk,RL
15,977,95.67200000000001,94.695,0,31,103818,2bk,RL
16,993,98.24600000000001,97.25299999999999,1,32,103818,2bk,RL
17,915,100.727,99.81200000000001,1,33,103818,2bk,RL
18,1210,103.581,102.37100000000001,0,34,103818,2bk,RL
19,1656,106.586,104.93,1,35,103818,2bk,RL
20,1074,182.386,181.312,1,60,103818,2bk,RL
21,935,184.82,183.885,1,61,103818,2bk,RL
22,920,187.377,186.457,1,62,103818,2bk,RL
23,925,189.954,189.02900000000002,1,63,103818,2bk,RL
24,1810,193.412,191.602,0,64,103818,2bk,RL
25,1458,195.632,194.174,1,65,103818,2bk,RL
26,773,197.519,196.74599999999998,1,66,103818,2bk,RL
27,1140,200.458,199.31799999999998,1,67,103818,2bk,RL
28,989,202.88,201.891,1,68,103818,2bk,RL
29,1795,206.25799999999998,204.463,1,69,103818,2bk,RL
30,0,-245.46599999999998,252.60299999999998,0,83,103818,2bk,RL
31,1148,256.31,255.162,1,84,103818,2bk,RL
32,1601,259.336,257.735,1,85,103818,2bk,RL
33,1396,261.703,260.307,1,86,103818,2bk,RL
34,1628,264.507,262.879,1,87,103818,2bk,RL
35,1231,266.682,265.45099999999996,0,88,103818,2bk,RL
36,1155,269.17900000000003,268.024,1,89,103818,2bk,RL
37,770,271.366,270.596,1,90,103818,2bk,RL
38,1174,274.342,273.168,1,91,103818,2bk,RL
39,1138,276.879,275.741,1,92,103818,2bk,RL
0,1188,39.879,38.691,1,14,104820,0bk,RL
1,808,42.071000000000005,41.263000000000005,1,15,104820,0bk,RL
2,608,44.443000000000005,43.835,1,16,104820,0bk,RL
3,472,46.88,46.408,1,17,104820,0bk,RL
4,462,49.442,48.98,1,18,104820,0bk,RL
5,561,52.113,51.552,1,19,104820,0bk,RL
6,474,54.598,54.123999999999995,1,20,104820,0bk,RL
7,382,57.07899999999999,56.696999999999996,1,21,104820,0bk,RL
8,841,60.11,59.269,1,22,104820,0bk,RL
9,559,62.4,61.841,1,23,104820,0bk,RL
10,0,-258.202,109.98200000000001,0,37,104820,0bk,RL
11,822,113.376,112.554,1,38,104820,0bk,RL
12,666,115.78,115.11399999999999,1,39,104820,0bk,RL
13,662,118.334,117.67200000000001,1,40,104820,0bk,RL
14,881,121.113,120.23200000000001,1,41,104820,0bk,RL
15,942,123.73200000000001,122.79,1,42,104820,0bk,RL
16,603,125.95200000000001,125.34899999999999,1,43,104820,0bk,RL
17,841,128.749,127.90799999999999,1,44,104820,0bk,RL
18,597,131.064,130.467,1,45,104820,0bk,RL
19,435,133.461,133.026,1,46,104820,0bk,RL
20,1859,154.957,153.09799999999998,1,49,104820,0bk,RL
21,869,156.539,155.67,0,50,104820,0bk,RL
22,614,158.857,158.243,1,51,104820,0bk,RL
23,460,161.275,160.815,0,52,104820,0bk,RL
24,530,163.917,163.387,1,53,104820,0bk,RL
25,681,166.641,165.96,1,54,104820,0bk,RL
26,644,169.176,168.532,0,55,104820,0bk,RL
27,511,171.615,171.104,1,56,104820,0bk,RL
28,526,174.203,173.67700000000002,1,57,104820,0bk,RL
29,568,176.817,176.24900000000002,1,58,104820,0bk,RL
30,1006,225.609,224.60299999999998,1,72,104820,0bk,RL
31,1033,228.208,227.175,1,73,104820,0bk,RL
32,602,230.33599999999998,229.734,1,74,104820,0bk,RL
33,833,233.153,232.32,1,75,104820,0bk,RL
34,556,235.44799999999998,234.892,1,76,104820,0bk,RL
35,447,237.925,237.47799999999998,1,77,104820,0bk,RL
36,716,240.753,240.037,1,78,104820,0bk,RL
37,726,243.322,242.59599999999998,1,79,104820,0bk,RL
38,989,246.144,245.155,1,80,104820,0bk,RL
39,640,248.354,247.71400000000003,1,81,104820,0bk,RL
0,759,11.314,10.555,0,3,104820,2bk,RL
1,0,-258.202,13.128,0,4,104820,2bk,RL
2,717,16.404,15.687000000000001,1,5,104820,2bk,RL
3,1338,19.597,18.259,0,6,104820,2bk,RL
4,1209,22.04,20.831,1,7,104820,2bk,RL
5,1371,24.761,23.39,1,8,104820,2bk,RL
6,778,26.726999999999997,25.949,0,9,104820,2bk,RL
7,747,29.255,28.508000000000003,1,10,104820,2bk,RL
8,678,31.745,31.066999999999997,1,11,104820,2bk,RL
9,657,34.283,33.626,1,12,104820,2bk,RL
10,567,82.46700000000001,81.9,1,26,104820,2bk,RL
11,724,85.18299999999999,84.459,1,27,104820,2bk,RL
12,1221,88.23899999999999,87.01799999999999,1,28,104820,2bk,RL
13,0,-258.202,89.57700000000001,0,29,104820,2bk,RL
14,388,92.524,92.13600000000001,1,30,104820,2bk,RL
15,558,95.25299999999999,94.695,1,31,104820,2bk,RL
16,963,98.21700000000001,97.25399999999999,1,32,104820,2bk,RL
17,788,100.601,99.81299999999999,1,33,104820,2bk,RL
18,753,103.125,102.37200000000001,1,34,104820,2bk,RL
19,350,105.281,104.931,1,35,104820,2bk,RL
20,1005,182.31799999999998,181.313,1,60,104820,2bk,RL
21,851,184.737,183.886,1,61,104820,2bk,RL
22,724,187.18200000000002,186.458,1,62,104820,2bk,RL
23,460,189.49,189.03,1,63,104820,2bk,RL
24,1363,192.96599999999998,191.60299999999998,0,64,104820,2bk,RL
25,953,195.128,194.175,1,65,104820,2bk,RL
26,478,197.252,196.774,1,66,104820,2bk,RL
27,1586,200.93200000000002,199.34599999999998,0,67,104820,2bk,RL
28,625,202.544,201.919,1,68,104820,2bk,RL
29,642,205.15900000000002,204.517,1,69,104820,2bk,RL
30,900,253.678,252.778,1,83,104820,2bk,RL
31,1502,256.85200000000003,255.35,1,84,104820,2bk,RL
32,1230,259.166,257.936,1,85,104820,2bk,RL
33,1299,261.808,260.509,1,86,104820,2bk,RL
34,1297,264.378,263.08099999999996,0,87,104820,2bk,RL
35,1980,267.62,265.64,1,88,104820,2bk,RL
36,541,268.76599999999996,268.225,1,89,104820,2bk,RL
37,711,271.535,270.824,1,90,104820,2bk,RL
38,1544,274.941,273.397,0,91,104820,2bk,RL
39,658,276.64,275.982,1,92,104820,2bk,RL
0,788,39.479,38.691,1,14,105014,0bk,RL
1,1109,42.372,41.263000000000005,1,15,105014,0bk,RL
2,1069,44.905,43.836000000000006,1,16,105014,0bk,RL
3,824,47.232,46.408,1,17,105014,0bk,RL
4,1147,50.126999999999995,48.98,1,18,105014,0bk,RL
5,763,52.315,51.552,1,19,105014,0bk,RL
6,700,54.825,54.125,1,20,105014,0bk,RL
7,940,57.637,56.696999999999996,1,21,105014,0bk,RL
8,816,60.085,59.269,1,22,105014,0bk,RL
9,801,62.641999999999996,61.841,1,23,105014,0bk,RL
10,1062,111.044,109.98200000000001,1,37,105014,0bk,RL
11,646,113.186,112.54,1,38,105014,0bk,RL
12,773,115.87299999999999,115.1,1,39,105014,0bk,RL
13,711,118.369,117.65799999999999,1,40,105014,0bk,RL
14,811,121.029,120.21799999999999,1,41,105014,0bk,RL
15,616,123.39200000000001,122.77600000000001,1,42,105014,0bk,RL
16,590,125.925,125.335,1,43,105014,0bk,RL
17,537,128.431,127.89399999999999,1,44,105014,0bk,RL
18,735,131.188,130.453,1,45,105014,0bk,RL
19,694,133.719,133.025,1,46,105014,0bk,RL
20,687,153.784,153.097,1,49,105014,0bk,RL
21,551,156.22,155.66899999999998,1,50,105014,0bk,RL
22,821,159.063,158.24200000000002,1,51,105014,0bk,RL
23,797,161.611,160.814,1,52,105014,0bk,RL
24,655,164.041,163.386,1,53,105014,0bk,RL
25,594,166.55200000000002,165.958,1,54,105014,0bk,RL
26,556,169.08700000000002,168.53099999999998,1,55,105014,0bk,RL
27,528,171.63099999999997,171.10299999999998,1,56,105014,0bk,RL
28,807,174.482,173.675,1,57,105014,0bk,RL
29,683,176.93,176.247,1,58,105014,0bk,RL
30,1000,225.641,224.641,1,72,105014,0bk,RL
31,498,227.72400000000002,227.226,1,73,105014,0bk,RL
32,531,230.31599999999997,229.785,1,74,105014,0bk,RL
33,643,233.0,232.357,1,75,105014,0bk,RL
34,484,235.42700000000002,234.94299999999998,1,76,105014,0bk,RL
35,474,238.02900000000002,237.555,1,77,105014,0bk,RL
36,698,240.812,240.114,1,78,105014,0bk,RL
37,647,243.32,242.673,1,79,105014,0bk,RL
38,679,245.91099999999997,245.232,1,80,105014,0bk,RL
39,425,248.21599999999998,247.791,1,81,105014,0bk,RL
0,1058,11.614,10.556,1,3,105014,2bk,RL
1,1279,14.407,13.128,1,4,105014,2bk,RL
2,916,16.602999999999998,15.687000000000001,0,5,105014,2bk,RL
3,1449,19.708,18.259,0,6,105014,2bk,RL
4,1563,22.395,20.831999999999997,1,7,105014,2bk,RL
5,1121,24.511999999999997,23.391,1,8,105014,2bk,RL
6,1452,27.401999999999997,25.95,1,9,105014,2bk,RL
7,1415,29.924,28.509,1,10,105014,2bk,RL
8,0,-125.352,31.068,0,11,105014,2bk,RL
9,1900,35.525999999999996,33.626,0,12,105014,2bk,RL
10,658,82.55799999999999,81.9,1,26,105014,2bk,RL
11,949,85.40799999999999,84.459,1,27,105014,2bk,RL
12,1275,88.29299999999999,87.01799999999999,1,28,105014,2bk,RL
13,1033,90.61,89.57700000000001,1,29,105014,2bk,RL
14,1656,93.792,92.13600000000001,1,30,105014,2bk,RL
15,740,95.435,94.695,0,31,105014,2bk,RL
16,1336,98.589,97.25299999999999,1,32,105014,2bk,RL
17,1127,100.939,99.81200000000001,1,33,105014,2bk,RL
18,679,103.05,102.37100000000001,1,34,105014,2bk,RL
19,683,105.613,104.93,1,35,105014,2bk,RL
20,1788,183.1,181.312,1,60,105014,2bk,RL
21,988,184.872,183.88400000000001,1,61,105014,2bk,RL
22,507,186.96400000000003,186.457,1,62,105014,2bk,RL
23,666,189.708,189.042,1,63,105014,2bk,RL
24,891,192.505,191.614,1,64,105014,2bk,RL
25,538,194.725,194.187,1,65,105014,2bk,RL
26,763,197.53599999999997,196.773,1,66,105014,2bk,RL
27,781,200.125,199.34400000000002,1,67,105014,2bk,RL
28,783,202.753,201.97,1,68,105014,2bk,RL
29,0,-125.352,204.55599999999998,0,69,105014,2bk,RL
30,1158,254.02700000000002,252.86900000000003,1,83,105014,2bk,RL
31,936,256.377,255.44099999999997,1,84,105014,2bk,RL
32,1158,259.185,258.027,1,85,105014,2bk,RL
33,1006,261.605,260.599,1,86,105014,2bk,RL
34,888,264.059,263.171,1,87,105014,2bk,RL
35,1549,267.279,265.73,1,88,105014,2bk,RL
36,1098,269.414,268.316,1,89,105014,2bk,RL
37,760,271.66200000000003,270.902,1,90,105014,2bk,RL
38,996,274.47,273.474,1,91,105014,2bk,RL
39,1004,277.05,276.046,1,92,105014,2bk,RL
0,986,39.717,38.731,1,14,105115,0bk,RL
1,669,41.972,41.303000000000004,1,15,105115,0bk,RL
2,682,44.558,43.876000000000005,1,16,105115,0bk,RL
3,1280,47.728,46.448,1,17,105115,0bk,RL
4,1062,50.082,49.02,1,18,105115,0bk,RL
5,639,52.232,51.593,1,19,105115,0bk,RL
6,666,54.857,54.191,1,20,105115,0bk,RL
7,841,57.605,56.763999999999996,1,21,105115,0bk,RL
8,673,60.00899999999999,59.336000000000006,1,22,105115,0bk,RL
9,741,62.663000000000004,61.922,1,23,105115,0bk,RL
10,0,-81.913,110.14200000000001,0,37,105115,0bk,RL
11,851,113.566,112.715,1,38,105115,0bk,RL
12,739,116.02600000000001,115.287,1,39,105115,0bk,RL
13,895,118.741,117.846,1,40,105115,0bk,RL
14,927,121.33200000000001,120.405,1,41,105115,0bk,RL
15,940,123.904,122.964,1,42,105115,0bk,RL
16,993,126.516,125.523,1,43,105115,0bk,RL
17,1056,129.138,128.082,1,44,105115,0bk,RL
18,1063,131.704,130.641,1,45,105115,0bk,RL
19,949,134.189,133.24,1,46,105115,0bk,RL
20,1300,154.638,153.338,1,49,105115,0bk,RL
21,820,156.73,155.91,1,50,105115,0bk,RL
22,918,159.414,158.496,1,51,105115,0bk,RL
23,615,161.683,161.06799999999998,1,52,105115,0bk,RL
24,694,164.335,163.641,1,53,105115,0bk,RL
25,736,166.949,166.213,1,54,105115,0bk,RL
26,674,169.459,168.785,1,55,105115,0bk,RL
27,292,171.66299999999998,171.37099999999998,1,56,105115,0bk,RL
28,811,174.75400000000002,173.94299999999998,1,57,105115,0bk,RL
29,815,177.33,176.515,1,58,105115,0bk,RL
30,1032,225.90099999999998,224.86900000000003,1,72,105115,0bk,RL
31,556,228.011,227.455,1,73,105115,0bk,RL
32,733,230.747,230.014,1,74,105115,0bk,RL
33,617,233.217,232.6,1,75,105115,0bk,RL
34,586,235.798,235.21200000000002,1,76,105115,0bk,RL
35,585,238.36900000000003,237.78400000000002,1,77,105115,0bk,RL
36,908,241.25099999999998,240.343,1,78,105115,0bk,RL
37,729,243.63099999999997,242.90200000000002,1,79,105115,0bk,RL
38,370,245.831,245.46099999999998,1,80,105115,0bk,RL
39,851,248.87099999999998,248.02,1,81,105115,0bk,RL
0,1955,12.524000000000001,10.569,1,3,105115,2bk,RL
1,0,-81.913,13.140999999999998,0,4,105115,2bk,RL
2,1244,16.944000000000003,15.7,0,5,105115,2bk,RL
3,1195,19.468,18.273,1,6,105115,2bk,RL
4,1102,21.947,20.845,1,7,105115,2bk,RL
5,899,24.303,23.404,1,8,105115,2bk,RL
6,1172,27.135,25.963,1,9,105115,2bk,RL
7,1055,29.576999999999998,28.522,1,10,105115,2bk,RL
8,1246,32.327,31.081,1,11,105115,2bk,RL
9,0,-81.913,33.64,0,12,105115,2bk,RL
10,1351,83.35799999999999,82.007,1,26,105115,2bk,RL
11,1164,85.743,84.579,1,27,105115,2bk,RL
12,1239,88.391,87.152,1,28,105115,2bk,RL
13,1018,90.728,89.71,1,29,105115,2bk,RL
14,1077,93.346,92.26899999999999,1,30,105115,2bk,RL
15,1407,96.235,94.82799999999999,1,31,105115,2bk,RL
16,955,98.34299999999999,97.38799999999999,1,32,105115,2bk,RL
17,863,100.809,99.946,1,33,105115,2bk,RL
18,769,103.274,102.505,1,34,105115,2bk,RL
19,847,105.93799999999999,105.09100000000001,1,35,105115,2bk,RL
20,1627,183.234,181.607,1,60,105115,2bk,RL
21,918,185.097,184.179,1,61,105115,2bk,RL
22,761,187.512,186.75099999999998,1,62,105115,2bk,RL
23,1466,190.803,189.33700000000002,1,63,105115,2bk,RL
24,1766,193.675,191.90900000000002,1,64,105115,2bk,RL
25,528,195.01,194.482,1,65,105115,2bk,RL
26,658,197.71200000000002,197.054,1,66,105115,2bk,RL
27,1521,201.14700000000002,199.62599999999998,1,67,105115,2bk,RL
28,1837,204.035,202.19799999999998,1,68,105115,2bk,RL
29,907,205.704,204.797,1,69,105115,2bk,RL
30,1811,254.90900000000002,253.09799999999998,1,83,105115,2bk,RL
31,1114,256.784,255.67,1,84,105115,2bk,RL
32,1233,259.48900000000003,258.256,1,85,105115,2bk,RL
33,1221,262.063,260.842,1,86,105115,2bk,RL
34,896,264.297,263.401,1,87,105115,2bk,RL
35,1872,267.832,265.96,0,88,105115,2bk,RL
36,957,269.502,268.545,1,89,105115,2bk,RL
37,961,272.092,271.131,1,90,105115,2bk,RL
38,1004,274.694,273.69,1,91,105115,2bk,RL
39,1372,277.634,276.262,1,92,105115,2bk,RL
0,854,39.559,38.705,1,14,105216,0bk,RL
1,615,41.891999999999996,41.277,1,15,105216,0bk,RL
2,633,44.482,43.849,1,16,105216,0bk,RL
3,623,47.045,46.422,1,17,105216,0bk,RL
4,1070,50.06399999999999,48.994,1,18,105216,0bk,RL
5,573,52.138999999999996,51.566,1,19,105216,0bk,RL
6,642,54.78,54.138000000000005,1,20,105216,0bk,RL
7,664,57.375,56.711000000000006,1,21,105216,0bk,RL
8,618,59.901,59.283,1,22,105216,0bk,RL
9,1082,62.937,61.855,1,23,105216,0bk,RL
10,1275,111.271,109.99600000000001,1,37,105216,0bk,RL
11,652,113.20700000000001,112.555,1,38,105216,0bk,RL
12,675,115.789,115.11399999999999,1,39,105216,0bk,RL
13,829,118.50200000000001,117.67299999999999,1,40,105216,0bk,RL
14,886,121.131,120.245,1,41,105216,0bk,RL
15,755,123.559,122.804,1,42,105216,0bk,RL
16,680,126.04299999999999,125.363,1,43,105216,0bk,RL
17,778,128.7,127.92200000000001,1,44,105216,0bk,RL
18,742,131.22299999999998,130.481,1,45,105216,0bk,RL
19,597,133.637,133.04,1,46,105216,0bk,RL
20,927,154.039,153.112,1,49,105216,0bk,RL
21,575,156.259,155.684,1,50,105216,0bk,RL
22,666,158.909,158.243,1,51,105216,0bk,RL
23,805,161.607,160.80200000000002,1,52,105216,0bk,RL
24,621,163.995,163.374,1,53,105216,0bk,RL
25,629,166.576,165.947,1,54,105216,0bk,RL
26,572,169.09099999999998,168.519,1,55,105216,0bk,RL
27,500,171.59099999999998,171.09099999999998,1,56,105216,0bk,RL
28,547,174.197,173.65,1,57,105216,0bk,RL
29,690,176.91299999999998,176.22299999999998,1,58,105216,0bk,RL
30,1000,225.497,224.497,1,72,105216,0bk,RL
31,476,227.532,227.05599999999998,1,73,105216,0bk,RL
32,452,230.067,229.615,1,74,105216,0bk,RL
33,503,232.676,232.173,1,75,105216,0bk,RL
34,424,235.15599999999998,234.732,1,76,105216,0bk,RL
35,491,237.782,237.291,1,77,105216,0bk,RL
36,433,240.283,239.85,1,78,105216,0bk,RL
37,472,242.88099999999997,242.40900000000002,1,79,105216,0bk,RL
38,747,245.715,244.968,1,80,105216,0bk,RL
39,544,248.071,247.52700000000002,1,81,105216,0bk,RL
0,1207,11.776,10.569,1,3,105216,2bk,RL
1,1021,14.163,13.142000000000001,1,4,105216,2bk,RL
2,1558,17.259,15.700999999999999,0,5,105216,2bk,RL
3,1269,19.542,18.273,1,6,105216,2bk,RL
4,1077,21.921999999999997,20.845,1,7,105216,2bk,RL
5,1393,24.796999999999997,23.404,1,8,105216,2bk,RL
6,890,26.853,25.963,1,9,105216,2bk,RL
7,1046,29.568,28.522,1,10,105216,2bk,RL
8,1493,32.574,31.081,1,11,105216,2bk,RL
9,1003,34.643,33.64,1,12,105216,2bk,RL
10,917,82.831,81.914,1,26,105216,2bk,RL
11,900,85.37299999999999,84.473,1,27,105216,2bk,RL
12,1106,88.13799999999999,87.03200000000001,1,28,105216,2bk,RL
13,817,90.40799999999999,89.59100000000001,1,29,105216,2bk,RL
14,821,92.971,92.15,1,30,105216,2bk,RL
15,987,95.696,94.709,1,31,105216,2bk,RL
16,750,98.01799999999999,97.26799999999999,1,32,105216,2bk,RL
17,930,100.757,99.82700000000001,1,33,105216,2bk,RL
18,459,102.845,102.38600000000001,1,34,105216,2bk,RL
19,778,105.723,104.945,1,35,105216,2bk,RL
20,1746,183.033,181.287,1,60,105216,2bk,RL
21,1299,185.15900000000002,183.86,1,61,105216,2bk,RL
22,790,187.222,186.43200000000002,1,62,105216,2bk,RL
23,651,189.655,189.00400000000002,1,63,105216,2bk,RL
24,794,192.37,191.576,1,64,105216,2bk,RL
25,772,194.921,194.149,1,65,105216,2bk,RL
26,1715,198.43599999999998,196.72099999999998,1,66,105216,2bk,RL
27,1439,200.732,199.293,1,67,105216,2bk,RL
28,972,202.838,201.86599999999999,1,68,105216,2bk,RL
29,813,205.25099999999998,204.438,1,69,105216,2bk,RL
30,930,253.52200000000002,252.592,1,83,105216,2bk,RL
31,1169,256.33299999999997,255.16400000000002,1,84,105216,2bk,RL
32,688,258.425,257.737,1,85,105216,2bk,RL
33,615,260.911,260.296,1,86,105216,2bk,RL
34,505,263.373,262.868,1,87,105216,2bk,RL
35,771,266.198,265.427,1,88,105216,2bk,RL
36,537,268.536,267.999,1,89,105216,2bk,RL
37,610,271.181,270.57099999999997,1,90,105216,2bk,RL
38,627,273.77099999999996,273.144,1,91,105216,2bk,RL
39,622,276.33799999999997,275.716,1,92,105216,2bk,RL
0,1481,40.159,38.678000000000004,1,14,106016,0bk,RL
1,1296,42.54600000000001,41.25,1,15,106016,0bk,RL
2,1630,45.452,43.821999999999996,0,16,106016,0bk,RL
3,438,46.833,46.395,1,17,106016,0bk,RL
4,516,49.483000000000004,48.967,1,18,106016,0bk,RL
5,1095,52.63399999999999,51.538999999999994,1,19,106016,0bk,RL
6,595,54.706,54.111000000000004,1,20,106016,0bk,RL
7,609,57.293,56.684,1,21,106016,0bk,RL
8,1530,60.786,59.256,1,22,106016,0bk,RL
9,699,62.527,61.828,1,23,106016,0bk,RL
10,1060,111.02799999999999,109.96799999999999,1,37,106016,0bk,RL
11,1882,114.40899999999999,112.527,1,38,106016,0bk,RL
12,889,115.975,115.086,1,39,106016,0bk,RL
13,697,118.34200000000001,117.645,1,40,106016,0bk,RL
14,1432,121.637,120.205,0,41,106016,0bk,RL
15,1265,124.02799999999999,122.76299999999999,1,42,106016,0bk,RL
16,542,125.86399999999999,125.322,1,43,106016,0bk,RL
17,0,-260.085,127.881,0,44,106016,0bk,RL
18,1471,131.911,130.44,0,45,106016,0bk,RL
19,915,133.914,132.999,1,46,106016,0bk,RL
20,1026,154.083,153.05700000000002,1,49,106016,0bk,RL
21,498,156.114,155.616,1,50,106016,0bk,RL
22,635,158.81,158.175,1,51,106016,0bk,RL
23,1216,161.95,160.734,1,52,106016,0bk,RL
24,497,163.803,163.306,1,53,106016,0bk,RL
25,563,166.428,165.865,1,54,106016,0bk,RL
26,725,169.16299999999998,168.438,1,55,106016,0bk,RL
27,725,171.735,171.01,1,56,106016,0bk,RL
28,539,174.108,173.56900000000002,1,57,106016,0bk,RL
29,458,176.59900000000002,176.141,1,58,106016,0bk,RL
30,761,225.176,224.415,1,72,106016,0bk,RL
31,440,227.41299999999998,226.97299999999998,1,73,106016,0bk,RL
32,454,229.986,229.532,1,74,106016,0bk,RL
33,517,232.608,232.09099999999998,1,75,106016,0bk,RL
34,472,235.122,234.65,1,76,106016,0bk,RL
35,468,237.67700000000002,237.209,1,77,106016,0bk,RL
36,573,240.34099999999998,239.768,1,78,106016,0bk,RL
37,1025,243.352,242.327,0,79,106016,0bk,RL
38,458,245.34400000000002,244.886,1,80,106016,0bk,RL
39,1497,248.942,247.445,1,81,106016,0bk,RL
0,1317,11.873,10.556,1,3,106016,2bk,RL
1,1400,14.527999999999999,13.128,1,4,106016,2bk,RL
2,730,16.417,15.687000000000001,0,5,106016,2bk,RL
3,726,18.985,18.259,0,6,106016,2bk,RL
4,1323,22.141,20.818,1,7,106016,2bk,RL
5,1425,24.802,23.377,1,8,106016,2bk,RL
6,1416,27.351999999999997,25.936,1,9,106016,2bk,RL
7,1751,30.246,28.495,1,10,106016,2bk,RL
8,0,-260.085,31.054000000000002,0,11,106016,2bk,RL
9,1060,34.673,33.613,1,12,106016,2bk,RL
10,1025,82.912,81.887,1,26,106016,2bk,RL
11,1173,85.619,84.446,1,27,106016,2bk,RL
12,741,87.745,87.00399999999999,1,28,106016,2bk,RL
13,1265,90.82799999999999,89.56299999999999,1,29,106016,2bk,RL
14,1188,93.31,92.12200000000001,1,30,106016,2bk,RL
15,1867,96.54799999999999,94.681,0,31,106016,2bk,RL
16,1652,98.89200000000001,97.24,1,32,106016,2bk,RL
17,1072,100.87100000000001,99.79899999999999,1,33,106016,2bk,RL
18,575,102.93299999999999,102.35799999999999,1,34,106016,2bk,RL
19,711,105.62799999999999,104.917,1,35,106016,2bk,RL
20,1119,182.325,181.206,1,60,106016,2bk,RL
21,868,184.646,183.778,1,61,106016,2bk,RL
22,582,186.93200000000002,186.35,1,62,106016,2bk,RL
23,875,189.797,188.922,1,63,106016,2bk,RL
24,1412,192.907,191.495,1,64,106016,2bk,RL
25,1608,195.675,194.067,1,65,106016,2bk,RL
26,1297,197.93599999999998,196.639,1,66,106016,2bk,RL
27,877,200.08900000000003,199.21200000000002,1,67,106016,2bk,RL
28,878,202.662,201.78400000000002,1,68,106016,2bk,RL
29,1017,205.373,204.356,1,69,106016,2bk,RL
30,0,-260.085,252.49599999999998,0,83,106016,2bk,RL
31,965,256.034,255.06900000000002,1,84,106016,2bk,RL
32,893,258.534,257.64099999999996,1,85,106016,2bk,RL
33,862,261.062,260.2,1,86,106016,2bk,RL
34,852,263.611,262.759,1,87,106016,2bk,RL
35,995,266.32599999999996,265.33099999999996,1,88,106016,2bk,RL
36,1011,268.914,267.903,1,89,106016,2bk,RL
37,862,271.33799999999997,270.476,1,90,106016,2bk,RL
38,952,274.0,273.048,1,91,106016,2bk,RL
39,891,276.51099999999997,275.62,1,92,106016,2bk,RL
0,1127,39.818000000000005,38.691,1,14,106319,0bk,RL
1,1137,42.4,41.263000000000005,1,15,106319,0bk,RL
2,1609,45.443999999999996,43.835,1,16,106319,0bk,RL
3,848,47.256,46.408,1,17,106319,0bk,RL
4,1340,50.32,48.98,1,18,106319,0bk,RL
5,824,52.376000000000005,51.552,1,19,106319,0bk,RL
6,977,55.101000000000006,54.123999999999995,1,20,106319,0bk,RL
7,1625,58.321999999999996,56.696999999999996,1,21,106319,0bk,RL
8,1571,60.84,59.269,1,22,106319,0bk,RL
9,1309,63.15,61.841,1,23,106319,0bk,RL
10,1528,111.51,109.98200000000001,1,37,106319,0bk,RL
11,1206,113.76,112.554,1,38,106319,0bk,RL
12,1097,116.211,115.11399999999999,1,39,106319,0bk,RL
13,1466,119.13799999999999,117.67200000000001,1,40,106319,0bk,RL
14,1101,121.346,120.245,1,41,106319,0bk,RL
15,1307,124.11,122.803,1,42,106319,0bk,RL
16,1705,127.06700000000001,125.36200000000001,1,43,106319,0bk,RL
17,1315,129.236,127.921,1,44,106319,0bk,RL
18,1005,131.485,130.48,1,45,106319,0bk,RL
19,1114,134.154,133.04,1,46,106319,0bk,RL
20,0,-129.55,153.111,0,49,106319,0bk,RL
21,1323,157.007,155.684,1,50,106319,0bk,RL
22,1333,159.589,158.256,1,51,106319,0bk,RL
23,1269,162.097,160.828,1,52,106319,0bk,RL
24,770,164.17,163.4,1,53,106319,0bk,RL
25,773,166.74599999999998,165.97299999999998,1,54,106319,0bk,RL
26,708,169.24,168.532,1,55,106319,0bk,RL
27,931,172.035,171.104,1,56,106319,0bk,RL
28,925,174.601,173.676,1,57,106319,0bk,RL
29,817,177.06599999999997,176.24900000000002,1,58,106319,0bk,RL
30,1298,225.821,224.523,1,72,106319,0bk,RL
31,1181,228.263,227.082,1,73,106319,0bk,RL
32,1743,231.38400000000001,229.641,1,74,106319,0bk,RL
33,1914,234.114,232.2,1,75,106319,0bk,RL
34,1913,236.671,234.75799999999998,1,76,106319,0bk,RL
35,0,-129.55,237.317,0,77,106319,0bk,RL
36,1278,241.15400000000002,239.87599999999998,1,78,106319,0bk,RL
37,792,243.227,242.435,1,79,106319,0bk,RL
38,904,245.898,244.99400000000003,1,80,106319,0bk,RL
39,688,248.24099999999999,247.553,1,81,106319,0bk,RL
0,1384,11.939,10.555,1,3,106319,2bk,RL
1,1168,14.296,13.128,1,4,106319,2bk,RL
2,1355,17.042,15.687000000000001,0,5,106319,2bk,RL
3,1715,19.974,18.259,1,6,106319,2bk,RL
4,937,21.768,20.831,1,7,106319,2bk,RL
5,1088,24.478,23.39,1,8,106319,2bk,RL
6,1065,27.014,25.949,1,9,106319,2bk,RL
7,1269,29.776999999999997,28.508000000000003,1,10,106319,2bk,RL
8,0,-129.55,31.066999999999997,0,11,106319,2bk,RL
9,0,-129.55,33.626,0,12,106319,2bk,RL
10,1270,83.17,81.9,1,26,106319,2bk,RL
11,1387,85.846,84.459,1,27,106319,2bk,RL
12,1782,88.8,87.01799999999999,1,28,106319,2bk,RL
13,911,90.488,89.57700000000001,1,29,106319,2bk,RL
14,0,-129.55,92.13600000000001,0,30,106319,2bk,RL
15,1368,96.06299999999999,94.695,0,31,106319,2bk,RL
16,1409,98.663,97.25399999999999,1,32,106319,2bk,RL
17,1334,101.147,99.81299999999999,1,33,106319,2bk,RL
18,811,103.18299999999999,102.37200000000001,1,34,106319,2bk,RL
19,1186,106.117,104.931,1,35,106319,2bk,RL
20,1294,182.607,181.313,1,60,106319,2bk,RL
21,1924,185.81,183.886,1,61,106319,2bk,RL
22,1086,187.544,186.458,1,62,106319,2bk,RL
23,1246,190.27599999999998,189.03,1,63,106319,2bk,RL
24,1188,192.79,191.602,1,64,106319,2bk,RL
25,1020,195.195,194.175,1,65,106319,2bk,RL
26,1237,197.984,196.747,1,66,106319,2bk,RL
27,0,-129.55,199.31900000000002,0,67,106319,2bk,RL
28,1309,203.201,201.892,1,68,106319,2bk,RL
29,1233,205.697,204.46400000000003,1,69,106319,2bk,RL
30,0,-129.55,252.618,0,83,106319,2bk,RL
31,1874,257.064,255.19,0,84,106319,2bk,RL
32,1618,259.381,257.763,1,85,106319,2bk,RL
33,1877,262.212,260.335,1,86,106319,2bk,RL
34,0,-129.55,262.907,0,87,106319,2bk,RL
35,1156,266.623,265.467,1,88,106319,2bk,RL
36,1314,269.35200000000003,268.038,1,89,106319,2bk,RL
37,1379,271.99,270.611,1,90,106319,2bk,RL
38,1307,274.49,273.183,1,91,106319,2bk,RL
39,1360,277.115,275.755,1,92,106319,2bk,RL
0,1413,40.117,38.704,1,14,106521,0bk,RL
1,795,42.071000000000005,41.276,1,15,106521,0bk,RL
2,718,44.567,43.849,1,16,106521,0bk,RL
3,865,47.286,46.42100000000001,1,17,106521,0bk,RL
4,854,49.847,48.993,1,18,106521,0bk,RL
5,667,52.233000000000004,51.566,1,19,106521,0bk,RL
6,681,54.818999999999996,54.138000000000005,1,20,106521,0bk,RL
7,861,57.571000000000005,56.71,1,21,106521,0bk,RL
8,804,60.086000000000006,59.282,1,22,106521,0bk,RL
9,853,62.708,61.855,1,23,106521,0bk,RL
10,1695,111.69,109.995,1,37,106521,0bk,RL
11,887,113.454,112.56700000000001,1,38,106521,0bk,RL
12,868,115.995,115.12700000000001,1,39,106521,0bk,RL
13,890,118.575,117.685,1,40,106521,0bk,RL
14,768,121.012,120.244,1,41,106521,0bk,RL
15,1013,123.816,122.803,1,42,106521,0bk,RL
16,1062,126.42399999999999,125.36200000000001,1,43,106521,0bk,RL
17,1097,129.018,127.921,1,44,106521,0bk,RL
18,871,131.351,130.48,1,45,106521,0bk,RL
19,778,133.83,133.05200000000002,1,46,106521,0bk,RL
20,1242,154.366,153.124,1,49,106521,0bk,RL
21,1058,156.754,155.696,1,50,106521,0bk,RL
22,1171,159.42700000000002,158.256,1,51,106521,0bk,RL
23,1013,161.841,160.828,1,52,106521,0bk,RL
24,797,164.197,163.4,1,53,106521,0bk,RL
25,1151,167.123,165.972,1,54,106521,0bk,RL
26,1060,169.605,168.545,1,55,106521,0bk,RL
27,879,171.983,171.104,1,56,106521,0bk,RL
28,1065,174.74099999999999,173.676,1,57,106521,0bk,RL
29,1093,177.328,176.235,1,58,106521,0bk,RL
30,873,225.421,224.548,1,72,106521,0bk,RL
31,823,227.957,227.13400000000001,1,73,106521,0bk,RL
32,786,230.479,229.69299999999998,1,74,106521,0bk,RL
33,1053,233.31799999999998,232.265,1,75,106521,0bk,RL
34,1030,235.88099999999997,234.851,1,76,106521,0bk,RL
35,884,238.30700000000002,237.423,1,77,106521,0bk,RL
36,1059,241.041,239.982,1,78,106521,0bk,RL
37,959,243.5,242.541,1,79,106521,0bk,RL
38,658,245.75799999999998,245.1,1,80,106521,0bk,RL
39,801,248.46,247.65900000000002,1,81,106521,0bk,RL
0,1043,11.612,10.569,1,3,106521,2bk,RL
1,988,14.129000000000001,13.140999999999998,1,4,106521,2bk,RL
2,1120,16.82,15.7,1,5,106521,2bk,RL
3,986,19.258,18.272000000000002,1,6,106521,2bk,RL
4,1190,22.035,20.845,1,7,106521,2bk,RL
5,1273,24.677,23.404,1,8,106521,2bk,RL
6,1776,27.739,25.963,1,9,106521,2bk,RL
7,1516,30.038,28.522,1,10,106521,2bk,RL
8,0,-269.495,31.081,0,11,106521,2bk,RL
9,1290,34.929,33.639,1,12,106521,2bk,RL
10,1145,83.05799999999999,81.913,1,26,106521,2bk,RL
11,827,85.29899999999999,84.47200000000001,1,27,106521,2bk,RL
12,1164,88.195,87.031,1,28,106521,2bk,RL
13,1034,90.624,89.59,1,29,106521,2bk,RL
14,1324,93.473,92.149,1,30,106521,2bk,RL
15,1382,96.09,94.708,1,31,106521,2bk,RL
16,1500,98.76700000000001,97.26700000000001,1,32,106521,2bk,RL
17,1421,101.24700000000001,99.82600000000001,1,33,106521,2bk,RL
18,1356,103.741,102.385,1,34,106521,2bk,RL
19,1086,106.03,104.944,1,35,106521,2bk,RL
20,1098,182.39700000000002,181.299,1,60,106521,2bk,RL
21,863,184.735,183.872,1,61,106521,2bk,RL
22,850,187.294,186.44400000000002,1,62,106521,2bk,RL
23,1045,190.06099999999998,189.016,1,63,106521,2bk,RL
24,1276,192.864,191.588,1,64,106521,2bk,RL
25,1255,195.416,194.16099999999997,1,65,106521,2bk,RL
26,920,197.653,196.733,1,66,106521,2bk,RL
27,1774,201.079,199.305,1,67,106521,2bk,RL
28,1343,203.247,201.90400000000002,1,68,106521,2bk,RL
29,1044,205.521,204.477,1,69,106521,2bk,RL
30,1620,254.357,252.737,1,83,106521,2bk,RL
31,1727,257.036,255.30900000000003,1,84,106521,2bk,RL
32,1715,259.61,257.895,1,85,106521,2bk,RL
33,1269,261.736,260.467,1,86,106521,2bk,RL
34,1518,264.557,263.039,0,87,106521,2bk,RL
35,1333,266.931,265.598,1,88,106521,2bk,RL
36,985,269.16900000000004,268.184,1,89,106521,2bk,RL
37,1133,271.903,270.77,1,90,106521,2bk,RL
38,1620,274.962,273.342,1,91,106521,2bk,RL
39,1580,277.507,275.927,1,92,106521,2bk,RL
0,800,39.49,38.69,1,14,107321,0bk,RL
1,476,41.739,41.263000000000005,1,15,107321,0bk,RL
2,631,44.466,43.835,1,16,107321,0bk,RL
3,625,47.032,46.407,1,17,107321,0bk,RL
4,591,49.57,48.979,1,18,107321,0bk,RL
5,620,52.172,51.552,1,19,107321,0bk,RL
6,630,54.754,54.123999999999995,1,20,107321,0bk,RL
7,532,57.228,56.696000000000005,1,21,107321,0bk,RL
8,1104,60.372,59.268,1,22,107321,0bk,RL
9,845,62.68600000000001,61.841,1,23,107321,0bk,RL
10,0,-268.621,109.98100000000001,0,37,107321,0bk,RL
11,746,113.29899999999999,112.553,1,38,107321,0bk,RL
12,696,115.809,115.113,1,39,107321,0bk,RL
13,730,118.40100000000001,117.671,1,40,107321,0bk,RL
14,765,121.008,120.243,1,41,107321,0bk,RL
15,851,123.65299999999999,122.802,1,42,107321,0bk,RL
16,681,126.042,125.361,1,43,107321,0bk,RL
17,1283,129.203,127.92,1,44,107321,0bk,RL
18,457,130.936,130.47899999999998,1,45,107321,0bk,RL
19,769,133.82,133.05100000000002,1,46,107321,0bk,RL
20,1166,154.289,153.123,1,49,107321,0bk,RL
21,655,156.35,155.695,1,50,107321,0bk,RL
22,763,159.031,158.268,1,51,107321,0bk,RL
23,598,161.438,160.84,1,52,107321,0bk,RL
24,584,163.99599999999998,163.412,1,53,107321,0bk,RL
25,425,166.41,165.985,1,54,107321,0bk,RL
26,621,169.178,168.55700000000002,1,55,107321,0bk,RL
27,683,171.812,171.12900000000002,1,56,107321,0bk,RL
28,718,174.419,173.701,1,57,107321,0bk,RL
29,781,177.055,176.274,1,58,107321,0bk,RL
30,964,225.524,224.56,1,72,107321,0bk,RL
31,706,227.852,227.146,1,73,107321,0bk,RL
32,700,230.405,229.705,1,74,107321,0bk,RL
33,707,232.998,232.291,1,75,107321,0bk,RL
34,769,235.645,234.87599999999998,1,76,107321,0bk,RL
35,825,238.287,237.46200000000002,1,77,107321,0bk,RL
36,715,240.736,240.021,1,78,107321,0bk,RL
37,648,243.22799999999998,242.58,1,79,107321,0bk,RL
38,522,245.66099999999997,245.139,1,80,107321,0bk,RL
39,735,248.433,247.69799999999998,1,81,107321,0bk,RL
0,439,10.994000000000002,10.555,1,3,107321,2bk,RL
1,525,13.652999999999999,13.128,1,4,107321,2bk,RL
2,643,16.329,15.686,1,5,107321,2bk,RL
3,437,18.695999999999998,18.259,1,6,107321,2bk,RL
4,679,21.51,20.831,1,7,107321,2bk,RL
5,858,24.248,23.39,1,8,107321,2bk,RL
6,854,26.803,25.949,1,9,107321,2bk,RL
7,770,29.278000000000002,28.508000000000003,1,10,107321,2bk,RL
8,488,31.555,31.066999999999997,0,11,107321,2bk,RL
9,992,34.618,33.626,1,12,107321,2bk,RL
10,825,82.72399999999999,81.899,1,26,107321,2bk,RL
11,627,85.085,84.458,1,27,107321,2bk,RL
12,645,87.662,87.01700000000001,1,28,107321,2bk,RL
13,556,90.132,89.57600000000001,1,29,107321,2bk,RL
14,1052,93.18700000000001,92.135,1,30,107321,2bk,RL
15,735,95.429,94.694,0,31,107321,2bk,RL
16,934,98.18700000000001,97.25299999999999,1,32,107321,2bk,RL
17,944,100.756,99.81200000000001,1,33,107321,2bk,RL
18,537,102.90799999999999,102.37100000000001,1,34,107321,2bk,RL
19,1020,105.95,104.93,1,35,107321,2bk,RL
20,740,182.078,181.338,1,60,107321,2bk,RL
21,511,184.421,183.91,1,61,107321,2bk,RL
22,676,187.15900000000002,186.483,1,62,107321,2bk,RL
23,860,189.915,189.055,1,63,107321,2bk,RL
24,711,192.338,191.627,1,64,107321,2bk,RL
25,503,194.703,194.2,1,65,107321,2bk,RL
26,782,197.554,196.77200000000002,1,66,107321,2bk,RL
27,766,200.11,199.34400000000002,1,67,107321,2bk,RL
28,633,202.549,201.916,0,68,107321,2bk,RL
29,1074,205.563,204.489,1,69,107321,2bk,RL
30,860,253.622,252.762,1,83,107321,2bk,RL
31,866,256.2,255.334,1,84,107321,2bk,RL
32,903,258.823,257.92,1,85,107321,2bk,RL
33,1040,261.546,260.506,1,86,107321,2bk,RL
34,907,263.985,263.078,1,87,107321,2bk,RL
35,1124,266.76099999999997,265.637,1,88,107321,2bk,RL
36,678,268.9,268.222,1,89,107321,2bk,RL
37,648,271.443,270.795,1,90,107321,2bk,RL
38,679,274.046,273.367,1,91,107321,2bk,RL
39,677,276.616,275.939,1,92,107321,2bk,RL
0,1030,39.721,38.691,1,14,107422,0bk,RL
1,882,42.145,41.263000000000005,1,15,107422,0bk,RL
2,832,44.668,43.836000000000006,1,16,107422,0bk,RL
3,881,47.288999999999994,46.408,1,17,107422,0bk,RL
4,1502,50.482,48.98,1,18,107422,0bk,RL
5,760,52.313,51.553000000000004,1,19,107422,0bk,RL
6,590,54.715,54.125,1,20,107422,0bk,RL
7,644,57.341,56.696999999999996,1,21,107422,0bk,RL
8,743,60.013000000000005,59.27,1,22,107422,0bk,RL
9,600,62.442,61.842,1,23,107422,0bk,RL
10,1149,111.132,109.98299999999999,1,37,107422,0bk,RL
11,996,113.551,112.555,1,38,107422,0bk,RL
12,763,115.87700000000001,115.11399999999999,1,39,107422,0bk,RL
13,727,118.4,117.67299999999999,1,40,107422,0bk,RL
14,721,120.96600000000001,120.245,1,41,107422,0bk,RL
15,610,123.414,122.804,1,42,107422,0bk,RL
16,1010,126.37299999999999,125.363,1,43,107422,0bk,RL
17,670,128.592,127.92200000000001,1,44,107422,0bk,RL
18,861,131.342,130.481,1,45,107422,0bk,RL
19,576,133.629,133.053,1,46,107422,0bk,RL
20,1224,154.336,153.112,1,49,107422,0bk,RL
21,605,156.289,155.684,1,50,107422,0bk,RL
22,658,158.915,158.257,1,51,107422,0bk,RL
23,725,161.554,160.829,1,52,107422,0bk,RL
24,593,163.981,163.388,1,53,107422,0bk,RL
25,693,166.653,165.96,1,54,107422,0bk,RL
26,726,169.25900000000001,168.533,1,55,107422,0bk,RL
27,608,171.713,171.105,1,56,107422,0bk,RL
28,561,174.225,173.66400000000002,1,57,107422,0bk,RL
29,863,177.09900000000002,176.236,1,58,107422,0bk,RL
30,1190,225.727,224.537,1,72,107422,0bk,RL
31,642,227.764,227.122,1,73,107422,0bk,RL
32,743,230.424,229.68099999999998,1,74,107422,0bk,RL
33,935,233.202,232.267,1,75,107422,0bk,RL
34,593,235.446,234.85299999999998,1,76,107422,0bk,RL
35,537,237.949,237.412,1,77,107422,0bk,RL
36,610,240.581,239.97099999999998,1,78,107422,0bk,RL
37,568,243.09799999999998,242.53,1,79,107422,0bk,RL
38,541,245.62900000000002,245.088,1,80,107422,0bk,RL
39,675,248.322,247.64700000000002,1,81,107422,0bk,RL
0,514,11.07,10.556,1,3,107422,2bk,RL
1,914,14.042,13.128,1,4,107422,2bk,RL
2,1209,16.896,15.687000000000001,1,5,107422,2bk,RL
3,1463,19.722,18.259,1,6,107422,2bk,RL
4,1206,22.038,20.831999999999997,1,7,107422,2bk,RL
5,956,24.346999999999998,23.391,1,8,107422,2bk,RL
6,1318,27.268,25.95,1,9,107422,2bk,RL
7,1105,29.614,28.509,1,10,107422,2bk,RL
8,1552,32.62,31.068,1,11,107422,2bk,RL
9,1448,35.075,33.626999999999995,1,12,107422,2bk,RL
10,725,82.626,81.90100000000001,1,26,107422,2bk,RL
11,927,85.387,84.46,1,27,107422,2bk,RL
12,892,87.911,87.01899999999999,1,28,107422,2bk,RL
13,866,90.443,89.57700000000001,1,29,107422,2bk,RL
14,1164,93.3,92.13600000000001,1,30,107422,2bk,RL
15,1220,95.915,94.695,1,31,107422,2bk,RL
16,951,98.205,97.25399999999999,1,32,107422,2bk,RL
17,890,100.70299999999999,99.81299999999999,1,33,107422,2bk,RL
18,908,103.28,102.37200000000001,1,34,107422,2bk,RL
19,900,105.831,104.931,1,35,107422,2bk,RL
20,1051,182.352,181.301,1,60,107422,2bk,RL
21,557,184.43,183.873,1,61,107422,2bk,RL
22,783,187.22799999999998,186.445,1,62,107422,2bk,RL
23,666,189.68400000000003,189.018,1,63,107422,2bk,RL
24,979,192.56900000000002,191.59,1,64,107422,2bk,RL
25,1169,195.331,194.162,1,65,107422,2bk,RL
26,1067,197.80200000000002,196.735,1,66,107422,2bk,RL
27,995,200.30200000000002,199.30700000000002,1,67,107422,2bk,RL
28,957,202.83599999999998,201.87900000000002,1,68,107422,2bk,RL
29,944,205.395,204.451,1,69,107422,2bk,RL
30,934,253.65900000000002,252.725,1,83,107422,2bk,RL
31,755,256.053,255.298,1,84,107422,2bk,RL
32,657,258.527,257.87,1,85,107422,2bk,RL
33,748,261.204,260.45599999999996,1,86,107422,2bk,RL
34,937,263.965,263.028,1,87,107422,2bk,RL
35,1133,266.72,265.587,1,88,107422,2bk,RL
36,835,268.994,268.159,1,89,107422,2bk,RL
37,679,271.411,270.732,1,90,107422,2bk,RL
38,550,273.85400000000004,273.30400000000003,1,91,107422,2bk,RL
39,836,276.712,275.876,1,92,107422,2bk,RL
0,831,39.535,38.704,1,14,108121,0bk,RL
1,668,41.945,41.277,1,15,108121,0bk,RL
2,513,44.361999999999995,43.849,1,16,108121,0bk,RL
3,582,47.003,46.42100000000001,1,17,108121,0bk,RL
4,516,49.50899999999999,48.993,1,18,108121,0bk,RL
5,543,52.108999999999995,51.566,1,19,108121,0bk,RL
6,607,54.745,54.138000000000005,1,20,108121,0bk,RL
7,492,57.202,56.71,1,21,108121,0bk,RL
8,1022,60.303999999999995,59.282,1,22,108121,0bk,RL
9,669,62.523999999999994,61.855,1,23,108121,0bk,RL
10,1274,111.26899999999999,109.995,0,37,108121,0bk,RL
11,745,113.29899999999999,112.554,1,38,108121,0bk,RL
12,684,115.79700000000001,115.113,1,39,108121,0bk,RL
13,928,118.6,117.67200000000001,1,40,108121,0bk,RL
14,909,121.15299999999999,120.244,1,41,108121,0bk,RL
15,666,123.469,122.803,1,42,108121,0bk,RL
16,736,126.098,125.36200000000001,1,43,108121,0bk,RL
17,823,128.744,127.921,1,44,108121,0bk,RL
18,596,131.076,130.48,1,45,108121,0bk,RL
19,619,133.658,133.039,1,46,108121,0bk,RL
20,1104,154.215,153.111,1,49,108121,0bk,RL
21,742,156.425,155.683,1,50,108121,0bk,RL
22,689,158.931,158.24200000000002,1,51,108121,0bk,RL
23,537,161.351,160.814,1,52,108121,0bk,RL
24,485,163.87099999999998,163.386,1,53,108121,0bk,RL
25,583,166.542,165.959,1,54,108121,0bk,RL
26,582,169.113,168.53099999999998,1,55,108121,0bk,RL
27,554,171.644,171.09,1,56,108121,0bk,RL
28,625,174.287,173.662,1,57,108121,0bk,RL
29,695,176.929,176.234,1,58,108121,0bk,RL
30,539,225.047,224.50799999999998,1,72,108121,0bk,RL
31,478,227.545,227.067,1,73,108121,0bk,RL
32,953,230.579,229.62599999999998,1,74,108121,0bk,RL
33,508,232.69299999999998,232.185,1,75,108121,0bk,RL
34,469,235.213,234.74400000000003,1,76,108121,0bk,RL
35,556,237.859,237.303,1,77,108121,0bk,RL
36,856,240.717,239.861,1,78,108121,0bk,RL
37,575,242.995,242.42,1,79,108121,0bk,RL
38,541,245.52,244.979,1,80,108121,0bk,RL
39,839,248.377,247.53799999999998,1,81,108121,0bk,RL
0,435,11.004000000000001,10.569,1,3,108121,2bk,RL
1,393,13.534,13.140999999999998,1,4,108121,2bk,RL
2,547,16.247,15.7,0,5,108121,2bk,RL
3,858,19.131,18.273,0,6,108121,2bk,RL
4,1068,21.913,20.845,1,7,108121,2bk,RL
5,906,24.31,23.404,1,8,108121,2bk,RL
6,1365,27.328000000000003,25.963,1,9,108121,2bk,RL
7,1254,29.776,28.522,1,10,108121,2bk,RL
8,962,32.043,31.081,0,11,108121,2bk,RL
9,1488,35.128,33.64,1,12,108121,2bk,RL
10,0,-250.612,81.913,0,26,108121,2bk,RL
11,480,84.95200000000001,84.47200000000001,1,27,108121,2bk,RL
12,622,87.65299999999999,87.031,1,28,108121,2bk,RL
13,672,90.262,89.59,1,29,108121,2bk,RL
14,1037,93.186,92.149,1,30,108121,2bk,RL
15,1083,95.791,94.708,0,31,108121,2bk,RL
16,842,98.109,97.26700000000001,1,32,108121,2bk,RL
17,798,100.624,99.82600000000001,1,33,108121,2bk,RL
18,1023,103.40799999999999,102.385,1,34,108121,2bk,RL
19,1157,106.101,104.944,1,35,108121,2bk,RL
20,0,-250.612,181.299,0,60,108121,2bk,RL
21,472,184.343,183.87099999999998,1,61,108121,2bk,RL
22,574,187.017,186.44299999999998,1,62,108121,2bk,RL
23,875,189.891,189.016,1,63,108121,2bk,RL
24,1043,192.63099999999997,191.588,0,64,108121,2bk,RL
25,718,194.878,194.16,0,65,108121,2bk,RL
26,854,197.58700000000002,196.733,1,66,108121,2bk,RL
27,831,200.136,199.305,1,67,108121,2bk,RL
28,870,202.747,201.877,1,68,108121,2bk,RL
29,974,205.423,204.449,1,69,108121,2bk,RL
30,0,-250.612,252.60299999999998,0,83,108121,2bk,RL
31,802,255.977,255.175,1,84,108121,2bk,RL
32,442,258.189,257.747,1,85,108121,2bk,RL
33,567,260.887,260.32,1,86,108121,2bk,RL
34,476,263.368,262.892,1,87,108121,2bk,RL
35,926,266.377,265.45099999999996,0,88,108121,2bk,RL
36,760,268.783,268.02299999999997,1,89,108121,2bk,RL
37,721,271.317,270.596,1,90,108121,2bk,RL
38,903,274.07099999999997,273.168,1,91,108121,2bk,RL
39,807,276.547,275.74,1,92,108121,2bk,RL
0,806,39.59,38.784,1,14,108323,0bk,RL
1,889,42.246,41.357,1,15,108323,0bk,RL
2,0,-71.416,43.928999999999995,0,16,108323,0bk,RL
3,778,47.293,46.515,1,17,108323,0bk,RL
4,663,49.75,49.086999999999996,0,18,108323,0bk,RL
5,1023,52.681999999999995,51.659,0,19,108323,0bk,RL
6,740,54.998000000000005,54.258,1,20,108323,0bk,RL
7,809,57.638999999999996,56.83,0,21,108323,0bk,RL
8,998,60.401,59.403,1,22,108323,0bk,RL
9,789,62.777,61.988,1,23,108323,0bk,RL
10,1834,112.08200000000001,110.24799999999999,1,37,108323,0bk,RL
11,1424,114.271,112.84700000000001,1,38,108323,0bk,RL
12,1094,116.514,115.42,1,39,108323,0bk,RL
13,1091,119.083,117.992,1,40,108323,0bk,RL
14,1126,121.677,120.551,1,41,108323,0bk,RL
15,1370,124.493,123.12299999999999,1,42,108323,0bk,RL
16,705,126.387,125.682,0,43,108323,0bk,RL
17,685,128.92600000000002,128.241,1,44,108323,0bk,RL
18,679,131.47899999999998,130.8,0,45,108323,0bk,RL
19,814,134.19899999999998,133.385,1,46,108323,0bk,RL
20,1359,154.816,153.457,1,49,108323,0bk,RL
21,977,157.006,156.029,0,50,108323,0bk,RL
22,1362,159.964,158.602,1,51,108323,0bk,RL
23,782,161.95600000000002,161.174,0,52,108323,0bk,RL
24,849,164.595,163.746,1,53,108323,0bk,RL
25,909,167.24099999999999,166.332,0,54,108323,0bk,RL
26,1219,170.123,168.90400000000002,0,55,108323,0bk,RL
27,791,172.28099999999998,171.49,1,56,108323,0bk,RL
28,800,174.84900000000002,174.049,1,57,108323,0bk,RL
29,834,177.455,176.62099999999998,1,58,108323,0bk,RL
30,896,225.91,225.014,1,72,108323,0bk,RL
31,681,228.28099999999998,227.6,1,73,108323,0bk,RL
32,651,230.81,230.15900000000002,0,74,108323,0bk,RL
33,838,233.56900000000002,232.731,1,75,108323,0bk,RL
34,613,235.956,235.343,1,76,108323,0bk,RL
35,784,238.7,237.916,1,77,108323,0bk,RL
36,1287,241.762,240.475,1,78,108323,0bk,RL
37,947,243.981,243.03400000000002,0,79,108323,0bk,RL
38,684,246.27700000000002,245.593,1,80,108323,0bk,RL
39,618,248.77,248.15200000000002,0,81,108323,0bk,RL
0,1049,11.632,10.583,1,3,108323,2bk,RL
1,880,14.035,13.155,1,4,108323,2bk,RL
2,1137,16.878,15.741,0,5,108323,2bk,RL
3,1132,19.445,18.313,1,6,108323,2bk,RL
4,1057,21.941999999999997,20.885,1,7,108323,2bk,RL
5,1026,24.483,23.456999999999997,1,8,108323,2bk,RL
6,1831,27.846999999999998,26.016,1,9,108323,2bk,RL
7,1836,30.438000000000002,28.601999999999997,1,10,108323,2bk,RL
8,0,-71.416,31.160999999999998,0,11,108323,2bk,RL
9,270,33.99,33.72,0,12,108323,2bk,RL
10,733,82.806,82.073,1,26,108323,2bk,RL
11,589,85.235,84.646,1,27,108323,2bk,RL
12,898,88.14200000000001,87.244,1,28,108323,2bk,RL
13,1250,91.053,89.803,1,29,108323,2bk,RL
14,1348,93.71,92.36200000000001,1,30,108323,2bk,RL
15,1638,96.559,94.921,1,31,108323,2bk,RL
16,0,-71.416,97.494,0,32,108323,2bk,RL
17,1570,101.63600000000001,100.066,1,33,108323,2bk,RL
18,1073,103.698,102.625,1,34,108323,2bk,RL
19,1154,106.351,105.197,1,35,108323,2bk,RL
20,731,182.457,181.726,1,60,108323,2bk,RL
21,730,185.041,184.31099999999998,1,61,108323,2bk,RL
22,683,187.56599999999997,186.88299999999998,1,62,108323,2bk,RL
23,769,190.238,189.46900000000002,1,63,108323,2bk,RL
24,864,192.905,192.041,1,64,108323,2bk,RL
25,593,195.207,194.614,1,65,108323,2bk,RL
26,1005,198.19099999999997,197.18599999999998,1,66,108323,2bk,RL
27,1110,200.868,199.75799999999998,1,67,108323,2bk,RL
28,896,203.24,202.34400000000002,1,68,108323,2bk,RL
29,750,205.679,204.929,1,69,108323,2bk,RL
30,1170,254.41299999999998,253.243,1,83,108323,2bk,RL
31,1205,257.007,255.80200000000002,1,84,108323,2bk,RL
32,903,259.29,258.387,1,85,108323,2bk,RL
33,1055,262.015,260.96,1,86,108323,2bk,RL
34,770,264.289,263.519,1,87,108323,2bk,RL
35,713,266.80400000000003,266.091,1,88,108323,2bk,RL
36,862,269.552,268.69,1,89,108323,2bk,RL
37,768,272.043,271.275,1,90,108323,2bk,RL
38,1083,274.931,273.848,1,91,108323,2bk,RL
39,867,277.314,276.447,1,92,108323,2bk,RL
0,0,-252.505,38.691,0,14,108525,0bk,RL
1,1145,42.408,41.263000000000005,1,15,108525,0bk,RL
2,1197,45.032,43.835,1,16,108525,0bk,RL
3,1317,47.724,46.407,0,17,108525,0bk,RL
4,1093,50.073,48.98,0,18,108525,0bk,RL
5,0,-252.505,51.552,0,19,108525,0bk,RL
6,718,54.842,54.123999999999995,1,20,108525,0bk,RL
7,1080,57.777,56.696999999999996,1,21,108525,0bk,RL
8,0,-252.505,59.269,0,22,108525,0bk,RL
9,1178,63.019,61.841,1,23,108525,0bk,RL
10,949,110.931,109.98200000000001,1,37,108525,0bk,RL
11,486,113.04,112.554,1,38,108525,0bk,RL
12,936,116.04899999999999,115.113,1,39,108525,0bk,RL
13,617,118.289,117.67200000000001,1,40,108525,0bk,RL
14,855,121.09899999999999,120.244,1,41,108525,0bk,RL
15,1212,124.015,122.803,1,42,108525,0bk,RL
16,983,126.345,125.36200000000001,1,43,108525,0bk,RL
17,757,128.678,127.921,1,44,108525,0bk,RL
18,1024,131.504,130.48,1,45,108525,0bk,RL
19,638,133.67700000000002,133.039,1,46,108525,0bk,RL
20,743,153.85399999999998,153.111,1,49,108525,0bk,RL
21,852,156.535,155.683,1,50,108525,0bk,RL
22,780,159.035,158.255,1,51,108525,0bk,RL
23,1120,161.94799999999998,160.828,1,52,108525,0bk,RL
24,779,164.179,163.4,1,53,108525,0bk,RL
25,1047,167.019,165.972,1,54,108525,0bk,RL
26,1123,169.667,168.544,1,55,108525,0bk,RL
27,783,171.9,171.11700000000002,1,56,108525,0bk,RL
28,885,174.574,173.68900000000002,1,57,108525,0bk,RL
29,997,177.25799999999998,176.261,1,58,108525,0bk,RL
30,1407,225.956,224.549,1,72,108525,0bk,RL
31,694,227.828,227.13400000000001,1,73,108525,0bk,RL
32,1127,230.82,229.69299999999998,1,74,108525,0bk,RL
33,1868,234.146,232.278,0,75,108525,0bk,RL
34,704,235.56799999999998,234.864,1,76,108525,0bk,RL
35,914,238.35,237.43599999999998,1,77,108525,0bk,RL
36,1331,241.326,239.995,0,78,108525,0bk,RL
37,1466,244.02,242.554,0,79,108525,0bk,RL
38,0,-252.505,245.113,0,80,108525,0bk,RL
39,1755,249.42700000000002,247.672,0,81,108525,0bk,RL
0,0,-252.505,10.555,0,3,108525,2bk,RL
1,1657,14.785,13.128,1,4,108525,2bk,RL
2,876,16.563,15.687000000000001,0,5,108525,2bk,RL
3,1599,19.858,18.259,1,6,108525,2bk,RL
4,906,21.737,20.831,1,7,108525,2bk,RL
5,1023,24.413,23.39,1,8,108525,2bk,RL
6,822,26.771,25.949,0,9,108525,2bk,RL
7,776,29.284000000000002,28.508000000000003,1,10,108525,2bk,RL
8,997,32.064,31.066999999999997,0,11,108525,2bk,RL
9,1232,34.858000000000004,33.626,1,12,108525,2bk,RL
10,1443,83.34299999999999,81.9,1,26,108525,2bk,RL
11,811,85.27,84.459,1,27,108525,2bk,RL
12,1036,88.054,87.01799999999999,1,28,108525,2bk,RL
13,783,90.36,89.57700000000001,1,29,108525,2bk,RL
14,1558,93.694,92.13600000000001,0,30,108525,2bk,RL
15,958,95.652,94.694,0,31,108525,2bk,RL
16,878,98.132,97.25399999999999,0,32,108525,2bk,RL
17,853,100.665,99.81200000000001,1,33,108525,2bk,RL
18,851,103.22200000000001,102.37100000000001,1,34,108525,2bk,RL
19,1425,106.355,104.93,1,35,108525,2bk,RL
20,0,-252.505,181.326,0,60,108525,2bk,RL
21,285,184.183,183.898,1,61,108525,2bk,RL
22,578,187.048,186.47,1,62,108525,2bk,RL
23,533,189.576,189.043,1,63,108525,2bk,RL
24,665,192.28,191.615,1,64,108525,2bk,RL
25,1115,195.30200000000002,194.187,1,65,108525,2bk,RL
26,807,197.567,196.76,1,66,108525,2bk,RL
27,884,200.21599999999998,199.332,1,67,108525,2bk,RL
28,977,202.88099999999997,201.90400000000002,1,68,108525,2bk,RL
29,681,205.157,204.476,0,69,108525,2bk,RL
30,0,-252.505,252.75,0,83,108525,2bk,RL
31,0,-252.505,255.30900000000003,0,84,108525,2bk,RL
32,1047,258.942,257.895,1,85,108525,2bk,RL
33,661,261.128,260.467,1,86,108525,2bk,RL
34,777,263.803,263.026,0,87,108525,2bk,RL
35,1113,266.698,265.585,0,88,108525,2bk,RL
36,914,269.07099999999997,268.157,1,89,108525,2bk,RL
37,744,271.473,270.72900000000004,1,90,108525,2bk,RL
38,876,274.164,273.288,1,91,108525,2bk,RL
39,976,276.837,275.861,1,92,108525,2bk,RL
0,1942,40.647,38.705,1,14,108828,0bk,RL
1,1115,42.391999999999996,41.277,1,15,108828,0bk,RL
2,1175,45.023999999999994,43.849,1,16,108828,0bk,RL
3,995,47.416000000000004,46.42100000000001,1,17,108828,0bk,RL
4,0,-244.668,48.994,0,18,108828,0bk,RL
5,864,52.43,51.566,1,19,108828,0bk,RL
6,1386,55.523999999999994,54.138000000000005,1,20,108828,0bk,RL
7,1883,58.593999999999994,56.711000000000006,0,21,108828,0bk,RL
8,1452,60.735,59.283,1,22,108828,0bk,RL
9,1164,63.019,61.855,1,23,108828,0bk,RL
10,0,-244.668,109.99600000000001,0,37,108828,0bk,RL
11,1128,113.68299999999999,112.555,1,38,108828,0bk,RL
12,1530,116.64399999999999,115.11399999999999,1,39,108828,0bk,RL
13,1608,119.281,117.67299999999999,1,40,108828,0bk,RL
14,1680,121.925,120.245,0,41,108828,0bk,RL
15,1357,124.161,122.804,1,42,108828,0bk,RL
16,1484,126.84700000000001,125.363,0,43,108828,0bk,RL
17,1856,129.778,127.92200000000001,1,44,108828,0bk,RL
18,1148,131.629,130.481,1,45,108828,0bk,RL
19,1323,134.363,133.04,1,46,108828,0bk,RL
20,0,-244.668,153.112,0,49,108828,0bk,RL
21,1081,156.765,155.684,0,50,108828,0bk,RL
22,1054,159.31,158.256,1,51,108828,0bk,RL
23,1421,162.25,160.829,0,52,108828,0bk,RL
24,1340,164.74099999999999,163.401,1,53,108828,0bk,RL
25,1555,167.528,165.97299999999998,1,54,108828,0bk,RL
26,1299,169.845,168.546,1,55,108828,0bk,RL
27,779,171.89700000000002,171.118,1,56,108828,0bk,RL
28,1156,174.84599999999998,173.69,1,57,108828,0bk,RL
29,950,177.199,176.24900000000002,0,58,108828,0bk,RL
30,0,-244.668,224.523,0,72,108828,0bk,RL
31,0,-244.668,227.082,0,73,108828,0bk,RL
32,1362,231.003,229.641,0,74,108828,0bk,RL
33,1451,233.65099999999998,232.2,1,75,108828,0bk,RL
34,0,-244.668,234.75900000000001,0,76,108828,0bk,RL
35,1173,238.49099999999999,237.31799999999998,1,77,108828,0bk,RL
36,747,240.62400000000002,239.877,0,78,108828,0bk,RL
37,1061,243.497,242.43599999999998,0,79,108828,0bk,RL
38,1433,246.428,244.995,1,80,108828,0bk,RL
39,736,248.29,247.554,1,81,108828,0bk,RL
0,0,-244.668,10.569,0,3,108828,2bk,RL
1,1097,14.238,13.140999999999998,1,4,108828,2bk,RL
2,736,16.436,15.7,0,5,108828,2bk,RL
3,1613,19.886,18.273,0,6,108828,2bk,RL
4,1159,22.004,20.845,1,7,108828,2bk,RL
5,1105,24.509,23.404,1,8,108828,2bk,RL
6,1484,27.447,25.963,0,9,108828,2bk,RL
7,1273,29.795,28.522,1,10,108828,2bk,RL
8,1484,32.565,31.081,0,11,108828,2bk,RL
9,1540,35.18,33.64,1,12,108828,2bk,RL
10,1037,82.95100000000001,81.914,1,26,108828,2bk,RL
11,639,85.11200000000001,84.473,1,27,108828,2bk,RL
12,1039,88.071,87.03200000000001,1,28,108828,2bk,RL
13,1155,90.74600000000001,89.59100000000001,0,29,108828,2bk,RL
14,1635,93.785,92.15,1,30,108828,2bk,RL
15,1774,96.48299999999999,94.709,0,31,108828,2bk,RL
16,1201,98.469,97.26799999999999,1,32,108828,2bk,RL
17,1407,101.234,99.82700000000001,1,33,108828,2bk,RL
18,1474,103.86,102.38600000000001,1,34,108828,2bk,RL
19,1697,106.64200000000001,104.945,1,35,108828,2bk,RL
20,0,-244.668,181.31400000000002,0,60,108828,2bk,RL
21,1354,185.24,183.886,1,61,108828,2bk,RL
22,1078,187.537,186.459,1,62,108828,2bk,RL
23,1106,190.137,189.03099999999998,1,63,108828,2bk,RL
24,1641,193.24400000000003,191.60299999999998,0,64,108828,2bk,RL
25,0,-244.668,194.175,0,65,108828,2bk,RL
26,1112,197.86,196.748,1,66,108828,2bk,RL
27,917,200.237,199.32,0,67,108828,2bk,RL
28,1415,203.30700000000002,201.892,1,68,108828,2bk,RL
29,1079,205.544,204.465,1,69,108828,2bk,RL
30,838,253.457,252.61900000000003,1,83,108828,2bk,RL
31,1659,256.85,255.19099999999997,0,84,108828,2bk,RL
32,1596,259.35900000000004,257.763,1,85,108828,2bk,RL
33,1800,262.13599999999997,260.336,1,86,108828,2bk,RL
34,1262,264.17,262.908,1,87,108828,2bk,RL
35,1276,266.743,265.467,0,88,108828,2bk,RL
36,864,268.903,268.039,1,89,108828,2bk,RL
37,1233,271.844,270.611,1,90,108828,2bk,RL
38,1017,274.20099999999996,273.184,0,91,108828,2bk,RL
39,1302,277.058,275.756,1,92,108828,2bk,RL
0,1074,39.778,38.704,1,14,109123,0bk,RL
1,690,41.967,41.277,1,15,109123,0bk,RL
2,621,44.47,43.849,1,16,109123,0bk,RL
3,742,47.163000000000004,46.42100000000001,1,17,109123,0bk,RL
4,564,49.558,48.994,1,18,109123,0bk,RL
5,540,52.106,51.566,1,19,109123,0bk,RL
6,897,55.035,54.138000000000005,1,20,109123,0bk,RL
7,591,57.301,56.71,1,21,109123,0bk,RL
8,748,60.031000000000006,59.283,0,22,109123,0bk,RL
9,680,62.535,61.855,1,23,109123,0bk,RL
10,1879,111.874,109.995,1,37,109123,0bk,RL
11,812,113.37899999999999,112.56700000000001,1,38,109123,0bk,RL
12,764,115.891,115.12700000000001,1,39,109123,0bk,RL
13,753,118.43799999999999,117.685,1,40,109123,0bk,RL
14,891,121.13600000000001,120.245,1,41,109123,0bk,RL
15,668,123.471,122.803,1,42,109123,0bk,RL
16,520,125.882,125.36200000000001,1,43,109123,0bk,RL
17,675,128.596,127.921,1,44,109123,0bk,RL
18,702,131.18200000000002,130.48,1,45,109123,0bk,RL
19,628,133.667,133.039,1,46,109123,0bk,RL
20,870,153.98,153.11,1,49,109123,0bk,RL
21,727,156.41,155.683,1,50,109123,0bk,RL
22,731,158.986,158.255,1,51,109123,0bk,RL
23,655,161.482,160.827,1,52,109123,0bk,RL
24,816,164.215,163.399,1,53,109123,0bk,RL
25,692,166.66400000000002,165.972,1,54,109123,0bk,RL
26,539,169.083,168.544,1,55,109123,0bk,RL
27,642,171.75799999999998,171.11599999999999,1,56,109123,0bk,RL
28,711,174.4,173.68900000000002,1,57,109123,0bk,RL
29,595,176.856,176.261,1,58,109123,0bk,RL
30,950,225.497,224.547,1,72,109123,0bk,RL
31,741,227.87400000000002,227.13299999999998,1,73,109123,0bk,RL
32,570,230.262,229.692,1,74,109123,0bk,RL
33,836,233.114,232.278,1,75,109123,0bk,RL
34,916,235.77900000000002,234.863,1,76,109123,0bk,RL
35,726,238.16099999999997,237.435,1,77,109123,0bk,RL
