ExperimentName,Subject,Session,Clock.Information,Display.RefreshRate,Group,RandomSeed,SessionDate,SessionTime,Block,CorrectResponse,Equation.ACC,Equation.CRESP,Equation.OnsetTime,Equation.RESP,Equation.RT,ID,JitterNull,List1,List1.Cycle,List1.Sample,Procedure,Running,Stimulus,Condition,ACCaddition_060418_jma,21,21,"<?xml version=""1.0""?>\n<Clock xmlns:dt=""urn:schemas-microsoft-com:datatypes""><Description dt:dt=""string"">E-Prime Primary Realtime Clock</Description><StartTime><Timestamp dt:dt=""int"">0</Timestamp><DateUtc dt:dt=""string"">2011-07-09T23:33:13Z</DateUtc></StartTime><FrequencyChanges><FrequencyChange><Frequency dt:dt=""r8"">3192110000</Frequency><Timestamp dt:dt=""r8"">375573105760</Timestamp><Current dt:dt=""r8"">0</Current><DateUtc dt:dt=""string"">1969-12-31T18:46:40Z</DateUtc></FrequencyChange></FrequencyChanges></Clock>\n",59.867,1,-1763346792,40733,0.689733796,1,2,1,2,59133,2,1687,1,0,1,1,1,AdditionProc,List1,1 + 4 = 3,simple,1addition_060418_jma,21,21,"<?xml version=""1.0""?>\n<Clock xmlns:dt=""urn:schemas-microsoft-com:datatypes""><Description dt:dt=""string"">E-Prime Primary Realtime Clock</Description><StartTime><Timestamp dt:dt=""int"">0</Timestamp><DateUtc dt:dt=""string"">2011-07-09T23:33:13Z</DateUtc></StartTime><FrequencyChanges><FrequencyChange><Frequency dt:dt=""r8"">3192110000</Frequency><Timestamp dt:dt=""r8"">375573105760</Timestamp><Current dt:dt=""r8"">0</Current><DateUtc dt:dt=""string"">1969-12-31T18:46:40Z</DateUtc></FrequencyChange></FrequencyChanges></Clock>\n",59.867,1,-1763346792,40733,0.689733796,2,1,1,1,64662,1,1221,2,2500,2,1,2,AdditionProc,List1,9 + 1 = 10,simple,1addition_060418_jma,21,21,"<?xml version=""1.0""?>\n<Clock xmlns:dt=""urn:schemas-microsoft-com:datatypes""><Description dt:dt=""string"">E-Prime Primary Realtime Clock</Description><StartTime><Timestamp dt:dt=""int"">0</Timestamp><DateUtc dt:dt=""string"">2011-07-09T23:33:13Z</DateUtc></StartTime><FrequencyChanges><FrequencyChange><Frequency dt:dt=""r8"">3192110000</Frequency><Timestamp dt:dt=""r8"">375573105760</Timestamp><Current dt:dt=""r8"">0</Current><DateUtc dt:dt=""string"">1969-12-31T18:46:40Z</DateUtc></FrequencyChange></FrequencyChanges></Clock>\n",59.867,1,-1763346792,40733,0.689733796,3,1,1,1,72680,1,4318,3,2500,3,1,3,AdditionProc,List1,4 + 9 = 13,complex,1addition_060418_jma,21,21,"<?xml version=""1.0""?>\n<Clock xmlns:dt=""urn:schemas-microsoft-com:datatypes""><Description dt:dt=""string"">E-Prime Primary Realtime Clock</Description><StartTime><Timestamp dt:dt=""int"">0</Timestamp><DateUtc dt:dt=""string"">2011-07-09T23:33:13Z</DateUtc></StartTime><FrequencyChanges><FrequencyChange><Frequency dt:dt=""r8"">3192110000</Frequency><Timestamp dt:dt=""r8"">375573105760</Timestamp><Current dt:dt=""r8"">0</Current><DateUtc dt:dt=""string"">1969-12-31T18:46:40Z</DateUtc></FrequencyChange></FrequencyChanges></Clock>\n",59.867,1,-1763346792,40733,0.689733796,4,2,1,2,80698,2,1675,4,3500,4,1,4,AdditionProc,List1,2 + 5 = 6,complex,1addition_060418_jma,21,21,"<?xml version=""1.0""?>\n<Clock xmlns:dt=""urn:schemas-microsoft-com:datatypes""><Description dt:dt=""string"">E-Prime Primary Realtime Clock</Description><StartTime><Timestamp dt:dt=""int"">0</Timestamp><DateUtc dt:dt=""string"">2011-07-09T23:33:13Z</DateUtc></StartTime><FrequencyChanges><FrequencyChange><Frequency dt:dt=""r8"">3192110000</Frequency><Timestamp dt:dt=""r8"">375573105760</Timestamp><Current dt:dt=""r8"">0</Current><DateUtc dt:dt=""string"">1969-12-31T18:46:40Z</DateUtc></FrequencyChange></FrequencyChanges></Clock>\n",59.867,1,-1763346792,40733,0.689733796,5,2,1,2,89717,2,1207,5,0,5,1,5,AdditionProc,List1,1 + 7 = 6,simple,1addition_060418_jma,21,21,"<?xml version=""1.0""?>\n<Clock xmlns:dt=""urn:schemas-microsoft-com:datatypes""><Description dt:dt=""string"">E-Prime Primary Realtime Clock</Description><StartTime><Timestamp dt:dt=""int"">0</Timestamp><DateUtc dt:dt=""string"">2011-07-09T23:33:13Z</DateUtc></StartTime><FrequencyChanges><FrequencyChange><Frequency dt:dt=""r8"">3192110000</Frequency><Timestamp dt:dt=""r8"">375573105760</Timestamp><Current dt:dt=""r8"">0</Current><DateUtc dt:dt=""string"">1969-12-31T18:46:40Z</DateUtc></FrequencyChange></FrequencyChanges></Clock>\n",59.867,1,-1763346792,40733,0.689733796,6,2,0,2,95246,1,1598,6,0,6,1,6,AdditionProc,List1,9 + 5 = 16,complex,0addition_060418_jma,21,21,"<?xml version=""1.0""?>\n<Clock xmlns:dt=""urn:schemas-microsoft-com:datatypes""><Description dt:dt=""string"">E-Prime Primary Realtime Clock</Description><StartTime><Timestamp dt:dt=""int"">0</Timestamp><DateUtc dt:dt=""string"">2011-07-09T23:33:13Z</DateUtc></StartTime><FrequencyChanges><FrequencyChange><Frequency dt:dt=""r8"">3192110000</Frequency><Timestamp dt:dt=""r8"">375573105760</Timestamp><Current dt:dt=""r8"">0</Current><DateUtc dt:dt=""string"">1969-12-31T18:46:40Z</DateUtc></FrequencyChange></FrequencyChanges></Clock>\n",59.867,1,-1763346792,40733,0.689733796,7,2,1,2,100775,2,2265,7,3500,7,1,7,AdditionProc,List1,6 + 3 = 11,complex,1addition_060418_jma,21,21,"<?xml version=""1.0""?>\n<Clock xmlns:dt=""urn:schemas-microsoft-com:datatypes""><Description dt:dt=""string"">E-Prime Primary Realtime Clock</Description><StartTime><Timestamp dt:dt=""int"">0</Timestamp><DateUtc dt:dt=""string"">2011-07-09T23:33:13Z</DateUtc></StartTime><FrequencyChanges><FrequencyChange><Frequency dt:dt=""r8"">3192110000</Frequency><Timestamp dt:dt=""r8"">375573105760</Timestamp><Current dt:dt=""r8"">0</Current><DateUtc dt:dt=""string"">1969-12-31T18:46:40Z</DateUtc></FrequencyChange></FrequencyChanges></Clock>\n",59.867,1,-1763346792,40733,0.689733796,8,2,1,2,109795,2,2474,8,0,8,1,8,AdditionProc,List1,5 + 9 = 13,complex,1addition_060418_jma,21,21,"<?xml version=""1.0""?>\n<Clock xmlns:dt=""urn:schemas-microsoft-com:datatypes""><Description dt:dt=""string"">E-Prime Primary Realtime Clock</Description><StartTime><Timestamp dt:dt=""int"">0</Timestamp><DateUtc dt:dt=""string"">2011-07-09T23:33:13Z</DateUtc></StartTime><FrequencyChanges><FrequencyChange><Frequency dt:dt=""r8"">3192110000</Frequency><Timestamp dt:dt=""r8"">375573105760</Timestamp><Current dt:dt=""r8"">0</Current><DateUtc dt:dt=""string"">1969-12-31T18:46:40Z</DateUtc></FrequencyChange></FrequencyChanges></Clock>\n",59.867,1,-1763346792,40733,0.689733796,9,1,1,1,115324,1,1437,9,0,9,1,9,AdditionProc,List1,5 + 2 = 7,complex,1addition_060418_jma,21,21,"<?xml version=""1.0""?>\n<Clock xmlns:dt=""urn:schemas-microsoft-com:datatypes""><Description dt:dt=""string"">E-Prime Primary Realtime Clock</Description><StartTime><Timestamp dt:dt=""int"">0</Timestamp><DateUtc dt:dt=""string"">2011-07-09T23:33:13Z</DateUtc></StartTime><FrequencyChanges><FrequencyChange><Frequency dt:dt=""r8"">3192110000</Frequency><Timestamp dt:dt=""r8"">375573105760</Timestamp><Current dt:dt=""r8"">0</Current><DateUtc dt:dt=""string"">1969-12-31T18:46:40Z</DateUtc></FrequencyChange></FrequencyChanges></Clock>\n",59.867,1,-1763346792,40733,0.689733796,10,1,0,1,120853,2,2821,10,2500,10,1,10,AdditionProc,List1,7 + 5 = 12,complex,0addition_060418_jma,21,21,"<?xml version=""1.0""?>\n<Clock xmlns:dt=""urn:schemas-microsoft-com:datatypes""><Description dt:dt=""string"">E-Prime Primary Realtime Clock</Description><StartTime><Timestamp dt:dt=""int"">0</Timestamp><DateUtc dt:dt=""string"">2011-07-09T23:33:13Z</DateUtc></StartTime><FrequencyChanges><FrequencyChange><Frequency dt:dt=""r8"">3192110000</Frequency><Timestamp dt:dt=""r8"">375573105760</Timestamp><Current dt:dt=""r8"">0</Current><DateUtc dt:dt=""string"">1969-12-31T18:46:40Z</DateUtc></FrequencyChange></FrequencyChanges></Clock>\n",59.867,1,-1763346792,40733,0.689733796,11,1,1,1,128871,1,1643,11,2500,11,1,11,AdditionProc,List1,5 + 9 = 14,complex,1addition_060418_jma,21,21,"<?xml version=""1.0""?>\n<Clock xmlns:dt=""urn:schemas-microsoft-com:datatypes""><Description dt:dt=""string"">E-Prime Primary Realtime Clock</Description><StartTime><Timestamp dt:dt=""int"">0</Timestamp><DateUtc dt:dt=""string"">2011-07-09T23:33:13Z</DateUtc></StartTime><FrequencyChanges><FrequencyChange><Frequency dt:dt=""r8"">3192110000</Frequency><Timestamp dt:dt=""r8"">375573105760</Timestamp><Current dt:dt=""r8"">0</Current><DateUtc dt:dt=""string"">1969-12-31T18:46:40Z</DateUtc></FrequencyChange></FrequencyChanges></Clock>\n",59.867,1,-1763346792,40733,0.689733796,12,1,1,1,136888,1,1301,12,0,12,1,12,AdditionProc,List1,1 + 5 = 6,simple,1addition_060418_jma,21,21,"<?xml version=""1.0""?>\n<Clock xmlns:dt=""urn:schemas-microsoft-com:datatypes""><Description dt:dt=""string"">E-Prime Primary Realtime Clock</Description><StartTime><Timestamp dt:dt=""int"">0</Timestamp><DateUtc dt:dt=""string"">2011-07-09T23:33:13Z</DateUtc></StartTime><FrequencyChanges><FrequencyChange><Frequency dt:dt=""r8"">3192110000</Frequency><Timestamp dt:dt=""r8"">375573105760</Timestamp><Current dt:dt=""r8"">0</Current><DateUtc dt:dt=""string"">1969-12-31T18:46:40Z</DateUtc></FrequencyChange></FrequencyChanges></Clock>\n",59.867,1,-1763346792,40733,0.689733796,13,1,1,1,142417,1,1582,13,2500,13,1,13,AdditionProc,List1,8 + 1 = 9,simple,1addition_060418_jma,21,21,"<?xml version=""1.0""?>\n<Clock xmlns:dt=""urn:schemas-microsoft-com:datatypes""><Description dt:dt=""string"">E-Prime Primary Realtime Clock</Description><StartTime><Timestamp dt:dt=""int"">0</Timestamp><DateUtc dt:dt=""string"">2011-07-09T23:33:13Z</DateUtc></StartTime><FrequencyChanges><FrequencyChange><Frequency dt:dt=""r8"">3192110000</Frequency><Timestamp dt:dt=""r8"">375573105760</Timestamp><Current dt:dt=""r8"">0</Current><DateUtc dt:dt=""string"">1969-12-31T18:46:40Z</DateUtc></FrequencyChange></FrequencyChanges></Clock>\n",59.867,1,-1763346792,40733,0.689733796,14,1,1,1,150435,1,1574,14,3500,14,1,14,AdditionProc,List1,9 + 4 = 13,complex,1addition_060418_jma,21,21,"<?xml version=""1.0""?>\n<Clock xmlns:dt=""urn:schemas-microsoft-com:datatypes""><Description dt:dt=""string"">E-Prime Primary Realtime Clock</Description><StartTime><Timestamp dt:dt=""int"">0</Timestamp><DateUtc dt:dt=""string"">2011-07-09T23:33:13Z</DateUtc></StartTime><FrequencyChanges><FrequencyChange><Frequency dt:dt=""r8"">3192110000</Frequency><Timestamp dt:dt=""r8"">375573105760</Timestamp><Current dt:dt=""r8"">0</Current><DateUtc dt:dt=""string"">1969-12-31T18:46:40Z</DateUtc></FrequencyChange></FrequencyChanges></Clock>\n",59.867,1,-1763346792,40733,0.689733796,15,1,1,1,159455,1,1073,15,3500,15,1,15,AdditionProc,List1,3 + 1 = 4,simple,1addition_060418_jma,21,21,"<?xml version=""1.0""?>\n<Clock xmlns:dt=""urn:schemas-microsoft-com:datatypes""><Description dt:dt=""string"">E-Prime Primary Realtime Clock</Description><StartTime><Timestamp dt:dt=""int"">0</Timestamp><DateUtc dt:dt=""string"">2011-07-09T23:33:13Z</DateUtc></StartTime><FrequencyChanges><FrequencyChange><Frequency dt:dt=""r8"">3192110000</Frequency><Timestamp dt:dt=""r8"">375573105760</Timestamp><Current dt:dt=""r8"">0</Current><DateUtc dt:dt=""string"">1969-12-31T18:46:40Z</DateUtc></FrequencyChange></FrequencyChanges></Clock>\n",59.867,1,-1763346792,40733,0.689733796,16,1,1,1,168475,1,1033,16,3500,16,1,16,AdditionProc,List1,2 + 1 = 3,simple,1addition_060418_jma,21,21,"<?xml version=""1.0""?>\n<Clock xmlns:dt=""urn:schemas-microsoft-com:datatypes""><Description dt:dt=""string"">E-Prime Primary Realtime Clock</Description><StartTime><Timestamp dt:dt=""int"">0</Timestamp><DateUtc dt:dt=""string"">2011-07-09T23:33:13Z</DateUtc></StartTime><FrequencyChanges><FrequencyChange><Frequency dt:dt=""r8"">3192110000</Frequency><Timestamp dt:dt=""r8"">375573105760</Timestamp><Current dt:dt=""r8"">0</Current><DateUtc dt:dt=""string"">1969-12-31T18:46:40Z</DateUtc></FrequencyChange></FrequencyChanges></Clock>\n",59.867,1,-1763346792,40733,0.689733796,17,1,0,1,177495,2,1793,17,0,17,1,17,AdditionProc,List1,8 + 5 = 13,complex,0addition_060418_jma,21,21,"<?xml version=""1.0""?>\n<Clock xmlns:dt=""urn:schemas-microsoft-com:datatypes""><Description dt:dt=""string"">E-Prime Primary Realtime Clock</Description><StartTime><Timestamp dt:dt=""int"">0</Timestamp><DateUtc dt:dt=""string"">2011-07-09T23:33:13Z</DateUtc></StartTime><FrequencyChanges><FrequencyChange><Frequency dt:dt=""r8"">3192110000</Frequency><Timestamp dt:dt=""r8"">375573105760</Timestamp><Current dt:dt=""r8"">0</Current><DateUtc dt:dt=""string"">1969-12-31T18:46:40Z</DateUtc></FrequencyChange></FrequencyChanges></Clock>\n",59.867,1,-1763346792,40733,0.689733796,18,2,1,2,183024,2,2031,18,3500,18,1,18,AdditionProc,List1,2 + 9 = 9,complex,1addition_060418_jma,21,21,"<?xml version=""1.0""?>\n<Clock xmlns:dt=""urn:schemas-microsoft-com:datatypes""><Description dt:dt=""string"">E-Prime Primary Realtime Clock</Description><StartTime><Timestamp dt:dt=""int"">0</Timestamp><DateUtc dt:dt=""string"">2011-07-09T23:33:13Z</DateUtc></StartTime><FrequencyChanges><FrequencyChange><Frequency dt:dt=""r8"">3192110000</Frequency><Timestamp dt:dt=""r8"">375573105760</Timestamp><Current dt:dt=""r8"">0</Current><DateUtc dt:dt=""string"">1969-12-31T18:46:40Z</DateUtc></FrequencyChange></FrequencyChanges></Clock>\n",59.867,1,-1763346792,40733,0.689733796,19,2,1,2,192044,2,1226,19,2500,19,1,19,AdditionProc,List1,1 + 9 = 9,simple,1addition_060418_jma,21,21,"<?xml version=""1.0""?>\n<Clock xmlns:dt=""urn:schemas-microsoft-com:datatypes""><Description dt:dt=""string"">E-Prime Primary Realtime Clock</Description><StartTime><Timestamp dt:dt=""int"">0</Timestamp><DateUtc dt:dt=""string"">2011-07-09T23:33:13Z</DateUtc></StartTime><FrequencyChanges><FrequencyChange><Frequency dt:dt=""r8"">3192110000</Frequency><Timestamp dt:dt=""r8"">375573105760</Timestamp><Current dt:dt=""r8"">0</Current><DateUtc dt:dt=""string"">1969-12-31T18:46:40Z</DateUtc></FrequencyChange></FrequencyChanges></Clock>\n",59.867,1,-1763346792,40733,0.689733796,20,1,1,1,200061,1,1478,20,0,20,1,20,AdditionProc,List1,2 + 8 = 10,complex,1addition_060418_jma,21,21,"<?xml version=""1.0""?>\n<Clock xmlns:dt=""urn:schemas-microsoft-com:datatypes""><Description dt:dt=""string"">E-Prime Primary Realtime Clock</Description><StartTime><Timestamp dt:dt=""int"">0</Timestamp><DateUtc dt:dt=""string"">2011-07-09T23:33:13Z</DateUtc></StartTime><FrequencyChanges><FrequencyChange><Frequency dt:dt=""r8"">3192110000</Frequency><Timestamp dt:dt=""r8"">375573105760</Timestamp><Current dt:dt=""r8"">0</Current><DateUtc dt:dt=""string"">1969-12-31T18:46:40Z</DateUtc></FrequencyChange></FrequencyChanges></Clock>\n",59.867,1,-1763346792,40733,0.689733796,21,2,1,2,205590,2,1354,21,2500,21,1,21,AdditionProc,List1,1 + 2 = 4,simple,1addition_060418_jma,21,21,"<?xml version=""1.0""?>\n<Clock xmlns:dt=""urn:schemas-microsoft-com:datatypes""><Description dt:dt=""string"">E-Prime Primary Realtime Clock</Description><StartTime><Timestamp dt:dt=""int"">0</Timestamp><DateUtc dt:dt=""string"">2011-07-09T23:33:13Z</DateUtc></StartTime><FrequencyChanges><FrequencyChange><Frequency dt:dt=""r8"">3192110000</Frequency><Timestamp dt:dt=""r8"">375573105760</Timestamp><Current dt:dt=""r8"">0</Current><DateUtc dt:dt=""string"">1969-12-31T18:46:40Z</DateUtc></FrequencyChange></FrequencyChanges></Clock>\n",59.867,1,-1763346792,40733,0.689733796,22,2,1,2,213608,2,1409,22,0,22,1,22,AdditionProc,List1,1 + 9 = 12,simple,1addition_060418_jma,21,21,"<?xml version=""1.0""?>\n<Clock xmlns:dt=""urn:schemas-microsoft-com:datatypes""><Description dt:dt=""string"">E-Prime Primary Realtime Clock</Description><StartTime><Timestamp dt:dt=""int"">0</Timestamp><DateUtc dt:dt=""string"">2011-07-09T23:33:13Z</DateUtc></StartTime><FrequencyChanges><FrequencyChange><Frequency dt:dt=""r8"">3192110000</Frequency><Timestamp dt:dt=""r8"">375573105760</Timestamp><Current dt:dt=""r8"">0</Current><DateUtc dt:dt=""string"">1969-12-31T18:46:40Z</DateUtc></FrequencyChange></FrequencyChanges></Clock>\n",59.867,1,-1763346792,40733,0.689733796,23,1,1,1,219137,1,1258,23,0,23,1,23,AdditionProc,List1,1 + 6 = 7,simple,1addition_060418_jma,21,21,"<?xml version=""1.0""?>\n<Clock xmlns:dt=""urn:schemas-microsoft-com:datatypes""><Description dt:dt=""string"">E-Prime Primary Realtime Clock</Description><StartTime><Timestamp dt:dt=""int"">0</Timestamp><DateUtc dt:dt=""string"">2011-07-09T23:33:13Z</DateUtc></StartTime><FrequencyChanges><FrequencyChange><Frequency dt:dt=""r8"">3192110000</Frequency><Timestamp dt:dt=""r8"">375573105760</Timestamp><Current dt:dt=""r8"">0</Current><DateUtc dt:dt=""string"">1969-12-31T18:46:40Z</DateUtc></FrequencyChange></FrequencyChanges></Clock>\n",59.867,1,-1763346792,40733,0.689733796,24,2,1,2,224666,2,2527,24,0,24,1,24,AdditionProc,List1,8 + 4 = 14,complex,1addition_060418_jma,21,21,"<?xml version=""1.0""?>\n<Clock xmlns:dt=""urn:schemas-microsoft-com:datatypes""><Description dt:dt=""string"">E-Prime Primary Realtime Clock</Description><StartTime><Timestamp dt:dt=""int"">0</Timestamp><DateUtc dt:dt=""string"">2011-07-09T23:33:13Z</DateUtc></StartTime><FrequencyChanges><FrequencyChange><Frequency dt:dt=""r8"">3192110000</Frequency><Timestamp dt:dt=""r8"">375573105760</Timestamp><Current dt:dt=""r8"">0</Current><DateUtc dt:dt=""string"">1969-12-31T18:46:40Z</DateUtc></FrequencyChange></FrequencyChanges></Clock>\n",59.867,1,-1763346792,40733,0.689733796,25,1,1,1,230195,1,1157,25,2500,25,1,25,AdditionProc,List1,2 + 1 = 3,simple,1addition_060418_jma,21,21,"<?xml version=""1.0""?>\n<Clock xmlns:dt=""urn:schemas-microsoft-com:datatypes""><Description dt:dt=""string"">E-Prime Primary Realtime Clock</Description><StartTime><Timestamp dt:dt=""int"">0</Timestamp><DateUtc dt:dt=""string"">2011-07-09T23:33:13Z</DateUtc></StartTime><FrequencyChanges><FrequencyChange><Frequency dt:dt=""r8"">3192110000</Frequency><Timestamp dt:dt=""r8"">375573105760</Timestamp><Current dt:dt=""r8"">0</Current><DateUtc dt:dt=""string"">1969-12-31T18:46:40Z</DateUtc></FrequencyChange></FrequencyChanges></Clock>\n",59.867,1,-1763346792,40733,0.689733796,26,2,1,2,238212,2,1273,26,3500,26,1,26,AdditionProc,List1,2 + 1 = 2,simple,1addition_060418_jma,21,21,"<?xml version=""1.0""?>\n<Clock xmlns:dt=""urn:schemas-microsoft-com:datatypes""><Description dt:dt=""string"">E-Prime Primary Realtime Clock</Description><StartTime><Timestamp dt:dt=""int"">0</Timestamp><DateUtc dt:dt=""string"">2011-07-09T23:33:13Z</DateUtc></StartTime><FrequencyChanges><FrequencyChange><Frequency dt:dt=""r8"">3192110000</Frequency><Timestamp dt:dt=""r8"">375573105760</Timestamp><Current dt:dt=""r8"">0</Current><DateUtc dt:dt=""string"">1969-12-31T18:46:40Z</DateUtc></FrequencyChange></FrequencyChanges></Clock>\n",59.867,1,-1763346792,40733,0.689733796,27,2,1,2,247232,2,2639,27,2500,27,1,27,AdditionProc,List1,9 + 3 = 13,complex,1addition_060418_jma,21,21,"<?xml version=""1.0""?>\n<Clock xmlns:dt=""urn:schemas-microsoft-com:datatypes""><Description dt:dt=""string"">E-Prime Primary Realtime Clock</Description><StartTime><Timestamp dt:dt=""int"">0</Timestamp><DateUtc dt:dt=""string"">2011-07-09T23:33:13Z</DateUtc></StartTime><FrequencyChanges><FrequencyChange><Frequency dt:dt=""r8"">3192110000</Frequency><Timestamp dt:dt=""r8"">375573105760</Timestamp><Current dt:dt=""r8"">0</Current><DateUtc dt:dt=""string"">1969-12-31T18:46:40Z</DateUtc></FrequencyChange></FrequencyChanges></Clock>\n",59.867,1,-1763346792,40733,0.689733796,28,1,1,1,255250,1,1492,28,0,28,1,28,AdditionProc,List1,9 + 5 = 14,complex,1addition_060418_jma,21,21,"<?xml version=""1.0""?>\n<Clock xmlns:dt=""urn:schemas-microsoft-com:datatypes""><Description dt:dt=""string"">E-Prime Primary Realtime Clock</Description><StartTime><Timestamp dt:dt=""int"">0</Timestamp><DateUtc dt:dt=""string"">2011-07-09T23:33:13Z</DateUtc></StartTime><FrequencyChanges><FrequencyChange><Frequency dt:dt=""r8"">3192110000</Frequency><Timestamp dt:dt=""r8"">375573105760</Timestamp><Current dt:dt=""r8"">0</Current><DateUtc dt:dt=""string"">1969-12-31T18:46:40Z</DateUtc></FrequencyChange></FrequencyChanges></Clock>\n",59.867,1,-1763346792,40733,0.689733796,29,2,1,2,260779,2,1626,29,0,29,1,29,AdditionProc,List1,8 + 3 = 9,complex,1addition_060418_jma,21,21,"<?xml version=""1.0""?>\n<Clock xmlns:dt=""urn:schemas-microsoft-com:datatypes""><Description dt:dt=""string"">E-Prime Primary Realtime Clock</Description><StartTime><Timestamp dt:dt=""int"">0</Timestamp><DateUtc dt:dt=""string"">2011-07-09T23:33:13Z</DateUtc></StartTime><FrequencyChanges><FrequencyChange><Frequency dt:dt=""r8"">3192110000</Frequency><Timestamp dt:dt=""r8"">375573105760</Timestamp><Current dt:dt=""r8"">0</Current><DateUtc dt:dt=""string"">1969-12-31T18:46:40Z</DateUtc></FrequencyChange></FrequencyChanges></Clock>\n",59.867,1,-1763346792,40733,0.689733796,30,1,1,1,266308,1,982,30,2500,30,1,30,AdditionProc,List1,2 + 1 = 3,simple,1addition_060418_jma,21,21,"<?xml version=""1.0""?>\n<Clock xmlns:dt=""urn:schemas-microsoft-com:datatypes""><Description dt:dt=""string"">E-Prime Primary Realtime Clock</Description><StartTime><Timestamp dt:dt=""int"">0</Timestamp><DateUtc dt:dt=""string"">2011-07-09T23:33:13Z</DateUtc></StartTime><FrequencyChanges><FrequencyChange><Frequency dt:dt=""r8"">3192110000</Frequency><Timestamp dt:dt=""r8"">375573105760</Timestamp><Current dt:dt=""r8"">0</Current><DateUtc dt:dt=""string"">1969-12-31T18:46:40Z</DateUtc></FrequencyChange></FrequencyChanges></Clock>\n",59.867,1,-1763346792,40733,0.689733796,31,1,1,1,274325,1,962,31,0,31,1,31,AdditionProc,List1,1 + 5 = 6,simple,1addition_060418_jma,21,21,"<?xml version=""1.0""?>\n<Clock xmlns:dt=""urn:schemas-microsoft-com:datatypes""><Description dt:dt=""string"">E-Prime Primary Realtime Clock</Description><StartTime><Timestamp dt:dt=""int"">0</Timestamp><DateUtc dt:dt=""string"">2011-07-09T23:33:13Z</DateUtc></StartTime><FrequencyChanges><FrequencyChange><Frequency dt:dt=""r8"">3192110000</Frequency><Timestamp dt:dt=""r8"">375573105760</Timestamp><Current dt:dt=""r8"">0</Current><DateUtc dt:dt=""string"">1969-12-31T18:46:40Z</DateUtc></FrequencyChange></FrequencyChanges></Clock>\n",59.867,1,-1763346792,40733,0.689733796,32,1,1,1,279854,1,1082,32,0,32,1,32,AdditionProc,List1,3 + 1 = 4,simple,1addition_060418_jma,21,21,"<?xml version=""1.0""?>\n<Clock xmlns:dt=""urn:schemas-microsoft-com:datatypes""><Description dt:dt=""string"">E-Prime Primary Realtime Clock</Description><StartTime><Timestamp dt:dt=""int"">0</Timestamp><DateUtc dt:dt=""string"">2011-07-09T23:33:13Z</DateUtc></StartTime><FrequencyChanges><FrequencyChange><Frequency dt:dt=""r8"">3192110000</Frequency><Timestamp dt:dt=""r8"">375573105760</Timestamp><Current dt:dt=""r8"">0</Current><DateUtc dt:dt=""string"">1969-12-31T18:46:40Z</DateUtc></FrequencyChange></FrequencyChanges></Clock>\n",59.867,1,-1763346792,40733,0.689733796,33,2,1,2,285383,2,1259,33,2500,33,1,33,AdditionProc,List1,1 + 2 = 5,simple,1addition_060418_jma,21,21,"<?xml version=""1.0""?>\n<Clock xmlns:dt=""urn:schemas-microsoft-com:datatypes""><Description dt:dt=""string"">E-Prime Primary Realtime Clock</Description><StartTime><Timestamp dt:dt=""int"">0</Timestamp><DateUtc dt:dt=""string"">2011-07-09T23:33:13Z</DateUtc></StartTime><FrequencyChanges><FrequencyChange><Frequency dt:dt=""r8"">3192110000</Frequency><Timestamp dt:dt=""r8"">375573105760</Timestamp><Current dt:dt=""r8"">0</Current><DateUtc dt:dt=""string"">1969-12-31T18:46:40Z</DateUtc></FrequencyChange></FrequencyChanges></Clock>\n",59.867,1,-1763346792,40733,0.689733796,34,2,1,2,293401,2,1257,34,3500,34,1,34,AdditionProc,List1,6 + 2 = 9,complex,1addition_060418_jma,21,21,"<?xml version=""1.0""?>\n<Clock xmlns:dt=""urn:schemas-microsoft-com:datatypes""><Description dt:dt=""string"">E-Prime Primary Realtime Clock</Description><StartTime><Timestamp dt:dt=""int"">0</Timestamp><DateUtc dt:dt=""string"">2011-07-09T23:33:13Z</DateUtc></StartTime><FrequencyChanges><FrequencyChange><Frequency dt:dt=""r8"">3192110000</Frequency><Timestamp dt:dt=""r8"">375573105760</Timestamp><Current dt:dt=""r8"">0</Current><DateUtc dt:dt=""string"">1969-12-31T18:46:40Z</DateUtc></FrequencyChange></FrequencyChanges></Clock>\n",59.867,1,-1763346792,40733,0.689733796,35,1,1,1,302421,1,1501,35,3500,35,1,35,AdditionProc,List1,2 + 3 = 5,complex,1addition_060418_jma,21,21,"<?xml version=""1.0""?>\n<Clock xmlns:dt=""urn:schemas-microsoft-com:datatypes""><Description dt:dt=""string"">E-Prime Primary Realtime Clock</Description><StartTime><Timestamp dt:dt=""int"">0</Timestamp><DateUtc dt:dt=""string"">2011-07-09T23:33:13Z</DateUtc></StartTime><FrequencyChanges><FrequencyChange><Frequency dt:dt=""r8"">3192110000</Frequency><Timestamp dt:dt=""r8"">375573105760</Timestamp><Current dt:dt=""r8"">0</Current><DateUtc dt:dt=""string"">1969-12-31T18:46:40Z</DateUtc></FrequencyChange></FrequencyChanges></Clock>\n",59.867,1,-1763346792,40733,0.689733796,36,2,1,2,311441,2,1894,36,2500,36,1,36,AdditionProc,List1,7 + 3 = 11,complex,1addition_060418_jma,21,21,"<?xml version=""1.0""?>\n<Clock xmlns:dt=""urn:schemas-microsoft-com:datatypes""><Description dt:dt=""string"">E-Prime Primary Realtime Clock</Description><StartTime><Timestamp dt:dt=""int"">0</Timestamp><DateUtc dt:dt=""string"">2011-07-09T23:33:13Z</DateUtc></StartTime><FrequencyChanges><FrequencyChange><Frequency dt:dt=""r8"">3192110000</Frequency><Timestamp dt:dt=""r8"">375573105760</Timestamp><Current dt:dt=""r8"">0</Current><DateUtc dt:dt=""string"">1969-12-31T18:46:40Z</DateUtc></FrequencyChange></FrequencyChanges></Clock>\n",59.867,1,-1763346792,40733,0.689733796,37,2,1,2,319459,2,1304,37,0,37,1,37,AdditionProc,List1,7 + 1 = 9,simple,1addition_060418_jma,21,21,"<?xml version=""1.0""?>\n<Clock xmlns:dt=""urn:schemas-microsoft-com:datatypes""><Description dt:dt=""string"">E-Prime Primary Realtime Clock</Description><StartTime><Timestamp dt:dt=""int"">0</Timestamp><DateUtc dt:dt=""string"">2011-07-09T23:33:13Z</DateUtc></StartTime><FrequencyChanges><FrequencyChange><Frequency dt:dt=""r8"">3192110000</Frequency><Timestamp dt:dt=""r8"">375573105760</Timestamp><Current dt:dt=""r8"">0</Current><DateUtc dt:dt=""string"">1969-12-31T18:46:40Z</DateUtc></FrequencyChange></FrequencyChanges></Clock>\n",59.867,1,-1763346792,40733,0.689733796,38,2,1,2,324987,2,982,38,3500,38,1,38,AdditionProc,List1,9 + 1 = 9,simple,1addition_060418_jma,21,21,"<?xml version=""1.0""?>\n<Clock xmlns:dt=""urn:schemas-microsoft-com:datatypes""><Description dt:dt=""string"">E-Prime Primary Realtime Clock</Description><StartTime><Timestamp dt:dt=""int"">0</Timestamp><DateUtc dt:dt=""string"">2011-07-09T23:33:13Z</DateUtc></StartTime><FrequencyChanges><FrequencyChange><Frequency dt:dt=""r8"">3192110000</Frequency><Timestamp dt:dt=""r8"">375573105760</Timestamp><Current dt:dt=""r8"">0</Current><DateUtc dt:dt=""string"">1969-12-31T18:46:40Z</DateUtc></FrequencyChange></FrequencyChanges></Clock>\n",59.867,1,-1763346792,40733,0.689733796,39,2,1,2,334007,2,2063,39,2500,39,1,39,AdditionProc,List1,5 + 3 = 6,complex,1addition_060418_jma,21,21,"<?xml version=""1.0""?>\n<Clock xmlns:dt=""urn:schemas-microsoft-com:datatypes""><Description dt:dt=""string"">E-Prime Primary Realtime Clock</Description><StartTime><Timestamp dt:dt=""int"">0</Timestamp><DateUtc dt:dt=""string"">2011-07-09T23:33:13Z</DateUtc></StartTime><FrequencyChanges><FrequencyChange><Frequency dt:dt=""r8"">3192110000</Frequency><Timestamp dt:dt=""r8"">375573105760</Timestamp><Current dt:dt=""r8"">0</Current><DateUtc dt:dt=""string"">1969-12-31T18:46:40Z</DateUtc></FrequencyChange></FrequencyChanges></Clock>\n",59.867,1,-1763346792,40733,0.689733796,40,1,1,1,342025,1,1829,40,2500,40,1,40,AdditionProc,List1,6 + 5 = 11,complex,1addition_060418_jma,21,21,"<?xml version=""1.0""?>\n<Clock xmlns:dt=""urn:schemas-microsoft-com:datatypes""><Description dt:dt=""string"">E-Prime Primary Realtime Clock</Description><StartTime><Timestamp dt:dt=""int"">0</Timestamp><DateUtc dt:dt=""string"">2011-07-09T23:33:13Z</DateUtc></StartTime><FrequencyChanges><FrequencyChange><Frequency dt:dt=""r8"">3192110000</Frequency><Timestamp dt:dt=""r8"">375573105760</Timestamp><Current dt:dt=""r8"">0</Current><DateUtc dt:dt=""string"">1969-12-31T18:46:40Z</DateUtc></FrequencyChange></FrequencyChanges></Clock>\n",59.867,1,-1763346792,40733,0.689733796,41,2,1,2,350043,2,1139,41,0,41,1,41,AdditionProc,List1,7 + 1 = 9,simple,1addition_060418_jma,21,21,"<?xml version=""1.0""?>\n<Clock xmlns:dt=""urn:schemas-microsoft-com:datatypes""><Description dt:dt=""string"">E-Prime Primary Realtime Clock</Description><StartTime><Timestamp dt:dt=""int"">0</Timestamp><DateUtc dt:dt=""string"">2011-07-09T23:33:13Z</DateUtc></StartTime><FrequencyChanges><FrequencyChange><Frequency dt:dt=""r8"">3192110000</Frequency><Timestamp dt:dt=""r8"">375573105760</Timestamp><Current dt:dt=""r8"">0</Current><DateUtc dt:dt=""string"">1969-12-31T18:46:40Z</DateUtc></FrequencyChange></FrequencyChanges></Clock>\n",59.867,1,-1763346792,40733,0.689733796,42,2,1,2,355572,2,1148,42,3500,42,1,42,AdditionProc,List1,1 + 3 = 3,simple,1addition_060418_jma,21,21,"<?xml version=""1.0""?>\n<Clock xmlns:dt=""urn:schemas-microsoft-com:datatypes""><Description dt:dt=""string"">E-Prime Primary Realtime Clock</Description><StartTime><Timestamp dt:dt=""int"">0</Timestamp><DateUtc dt:dt=""string"">2011-07-09T23:33:13Z</DateUtc></StartTime><FrequencyChanges><FrequencyChange><Frequency dt:dt=""r8"">3192110000</Frequency><Timestamp dt:dt=""r8"">375573105760</Timestamp><Current dt:dt=""r8"">0</Current><DateUtc dt:dt=""string"">1969-12-31T18:46:40Z</DateUtc></FrequencyChange></FrequencyChanges></Clock>\n",59.867,1,-1763346792,40733,0.689733796,43,1,1,1,364592,1,1889,43,0,43,1,43,AdditionProc,List1,3 + 9 = 12,complex,1addition_060418_jma,21,21,"<?xml version=""1.0""?>\n<Clock xmlns:dt=""urn:schemas-microsoft-com:datatypes""><Description dt:dt=""string"">E-Prime Primary Realtime Clock</Description><StartTime><Timestamp dt:dt=""int"">0</Timestamp><DateUtc dt:dt=""string"">2011-07-09T23:33:13Z</DateUtc></StartTime><FrequencyChanges><FrequencyChange><Frequency dt:dt=""r8"">3192110000</Frequency><Timestamp dt:dt=""r8"">375573105760</Timestamp><Current dt:dt=""r8"">0</Current><DateUtc dt:dt=""string"">1969-12-31T18:46:40Z</DateUtc></FrequencyChange></FrequencyChanges></Clock>\n",59.867,1,-1763346792,40733,0.689733796,44,1,1,1,370121,1,1510,44,2500,44,1,44,AdditionProc,List1,4 + 3 = 7,complex,1addition_060418_jma,21,21,"<?xml version=""1.0""?>\n<Clock xmlns:dt=""urn:schemas-microsoft-com:datatypes""><Description dt:dt=""string"">E-Prime Primary Realtime Clock</Description><StartTime><Timestamp dt:dt=""int"">0</Timestamp><DateUtc dt:dt=""string"">2011-07-09T23:33:13Z</DateUtc></StartTime><FrequencyChanges><FrequencyChange><Frequency dt:dt=""r8"">3192110000</Frequency><Timestamp dt:dt=""r8"">375573105760</Timestamp><Current dt:dt=""r8"">0</Current><DateUtc dt:dt=""string"">1969-12-31T18:46:40Z</DateUtc></FrequencyChange></FrequencyChanges></Clock>\n",59.867,1,-1763346792,40733,0.689733796,45,1,1,1,378138,1,1265,45,0,45,1,45,AdditionProc,List1,2 + 4 = 6,complex,1addition_060418_jma,21,21,"<?xml version=""1.0""?>\n<Clock xmlns:dt=""urn:schemas-microsoft-com:datatypes""><Description dt:dt=""string"">E-Prime Primary Realtime Clock</Description><StartTime><Timestamp dt:dt=""int"">0</Timestamp><DateUtc dt:dt=""string"">2011-07-09T23:33:13Z</DateUtc></StartTime><FrequencyChanges><FrequencyChange><Frequency dt:dt=""r8"">3192110000</Frequency><Timestamp dt:dt=""r8"">375573105760</Timestamp><Current dt:dt=""r8"">0</Current><DateUtc dt:dt=""string"">1969-12-31T18:46:40Z</DateUtc></FrequencyChange></FrequencyChanges></Clock>\n",59.867,1,-1763346792,40733,0.689733796,46,1,1,1,383667,1,1211,46,2500,46,1,46,AdditionProc,List1,6 + 1 = 7,simple,1addition_060418_jma,21,21,"<?xml version=""1.0""?>\n<Clock xmlns:dt=""urn:schemas-microsoft-com:datatypes""><Description dt:dt=""string"">E-Prime Primary Realtime Clock</Description><StartTime><Timestamp dt:dt=""int"">0</Timestamp><DateUtc dt:dt=""string"">2011-07-09T23:33:13Z</DateUtc></StartTime><FrequencyChanges><FrequencyChange><Frequency dt:dt=""r8"">3192110000</Frequency><Timestamp dt:dt=""r8"">375573105760</Timestamp><Current dt:dt=""r8"">0</Current><DateUtc dt:dt=""string"">1969-12-31T18:46:40Z</DateUtc></FrequencyChange></FrequencyChanges></Clock>\n",59.867,1,-1763346792,40733,0.689733796,47,2,1,2,391685,2,1189,47,0,47,1,47,AdditionProc,List1,1 + 8 = 7,simple,1addition_060418_jma,21,21,"<?xml version=""1.0""?>\n<Clock xmlns:dt=""urn:schemas-microsoft-com:datatypes""><Description dt:dt=""string"">E-Prime Primary Realtime Clock</Description><StartTime><Timestamp dt:dt=""int"">0</Timestamp><DateUtc dt:dt=""string"">2011-07-09T23:33:13Z</DateUtc></StartTime><FrequencyChanges><FrequencyChange><Frequency dt:dt=""r8"">3192110000</Frequency><Timestamp dt:dt=""r8"">375573105760</Timestamp><Current dt:dt=""r8"">0</Current><DateUtc dt:dt=""string"">1969-12-31T18:46:40Z</DateUtc></FrequencyChange></FrequencyChanges></Clock>\n",59.867,1,-1763346792,40733,0.689733796,48,2,1,2,397214,2,1073,48,3500,48,1,48,AdditionProc,List1,5 + 1 = 8,simple,1addition_060418_jma,21,21,"<?xml version=""1.0""?>\n<Clock xmlns:dt=""urn:schemas-microsoft-com:datatypes""><Description dt:dt=""string"">E-Prime Primary Realtime Clock</Description><StartTime><Timestamp dt:dt=""int"">0</Timestamp><DateUtc dt:dt=""string"">2011-07-09T23:33:13Z</DateUtc></StartTime><FrequencyChanges><FrequencyChange><Frequency dt:dt=""r8"">3192110000</Frequency><Timestamp dt:dt=""r8"">375573105760</Timestamp><Current dt:dt=""r8"">0</Current><DateUtc dt:dt=""string"">1969-12-31T18:46:40Z</DateUtc></FrequencyChange></FrequencyChanges></Clock>\n",59.867,1,-1763346792,40733,0.689733796,49,1,1,1,406234,1,938,49,3500,49,1,49,AdditionProc,List1,4 + 1 = 5,simple,1addition_060418_jma,21,21,"<?xml version=""1.0""?>\n<Clock xmlns:dt=""urn:schemas-microsoft-com:datatypes""><Description dt:dt=""string"">E-Prime Primary Realtime Clock</Description><StartTime><Timestamp dt:dt=""int"">0</Timestamp><DateUtc dt:dt=""string"">2011-07-09T23:33:13Z</DateUtc></StartTime><FrequencyChanges><FrequencyChange><Frequency dt:dt=""r8"">3192110000</Frequency><Timestamp dt:dt=""r8"">375573105760</Timestamp><Current dt:dt=""r8"">0</Current><DateUtc dt:dt=""string"">1969-12-31T18:46:40Z</DateUtc></FrequencyChange></FrequencyChanges></Clock>\n",59.867,1,-1763346792,40733,0.689733796,50,1,1,1,415254,1,978,50,3500,50,1,50,AdditionProc,List1,3 + 7 = 10,complex,1addition_060418_jma,21,21,"<?xml version=""1.0""?>\n<Clock xmlns:dt=""urn:schemas-microsoft-com:datatypes""><Description dt:dt=""string"">E-Prime Primary Realtime Clock</Description><StartTime><Timestamp dt:dt=""int"">0</Timestamp><DateUtc dt:dt=""string"">2011-07-09T23:33:13Z</DateUtc></StartTime><FrequencyChanges><FrequencyChange><Frequency dt:dt=""r8"">3192110000</Frequency><Timestamp dt:dt=""r8"">375573105760</Timestamp><Current dt:dt=""r8"">0</Current><DateUtc dt:dt=""string"">1969-12-31T18:46:40Z</DateUtc></FrequencyChange></FrequencyChanges></Clock>\n",59.867,1,-1763346792,40733,0.689733796,51,1,1,1,424274,1,1084,51,3500,51,1,51,AdditionProc,List1,7 + 2 = 9,complex,1addition_060418_jma,21,21,"<?xml version=""1.0""?>\n<Clock xmlns:dt=""urn:schemas-microsoft-com:datatypes""><Description dt:dt=""string"">E-Prime Primary Realtime Clock</Description><StartTime><Timestamp dt:dt=""int"">0</Timestamp><DateUtc dt:dt=""string"">2011-07-09T23:33:13Z</DateUtc></StartTime><FrequencyChanges><FrequencyChange><Frequency dt:dt=""r8"">3192110000</Frequency><Timestamp dt:dt=""r8"">375573105760</Timestamp><Current dt:dt=""r8"">0</Current><DateUtc dt:dt=""string"">1969-12-31T18:46:40Z</DateUtc></FrequencyChange></FrequencyChanges></Clock>\n",59.867,1,-1763346792,40733,0.689733796,52,2,1,2,433293,2,1318,52,3500,52,1,52,AdditionProc,List1,1 + 5 = 8,simple,1addition_060418_jma,22,2,"<?xml version=""1.0""?>\n<Clock xmlns:dt=""urn:schemas-microsoft-com:datatypes""><Description dt:dt=""string"">E-Prime Primary Realtime Clock</Description><StartTime><Timestamp dt:dt=""int"">0</Timestamp><DateUtc dt:dt=""string"">2011-07-09T23:33:13Z</DateUtc></StartTime><FrequencyChanges><FrequencyChange><Frequency dt:dt=""r8"">3192110000</Frequency><Timestamp dt:dt=""r8"">375573105760</Timestamp><Current dt:dt=""r8"">0</Current><DateUtc dt:dt=""string"">1969-12-31T18:46:40Z</DateUtc></FrequencyChange></FrequencyChanges></Clock>\n",74.999,1,1123590284,38936,0.570462963,1,2,1,2,87491,2,3153,1,0,1,1,1,AdditionProc,List1,9 + 1 = 11,simple,1addition_060418_jma,22,2,"<?xml version=""1.0""?>\n<Clock xmlns:dt=""urn:schemas-microsoft-com:datatypes""><Description dt:dt=""string"">E-Prime Primary Realtime Clock</Description><StartTime><Timestamp dt:dt=""int"">0</Timestamp><DateUtc dt:dt=""string"">2011-07-09T23:33:13Z</DateUtc></StartTime><FrequencyChanges><FrequencyChange><Frequency dt:dt=""r8"">3192110000</Frequency><Timestamp dt:dt=""r8"">375573105760</Timestamp><Current dt:dt=""r8"">0</Current><DateUtc dt:dt=""string"">1969-12-31T18:46:40Z</DateUtc></FrequencyChange></FrequencyChanges></Clock>\n",74.999,1,1123590284,38936,0.570462963,2,1,1,1,93011,1,2264,2,2500,2,1,2,AdditionProc,List1,1 + 6 = 7,simple,1addition_060418_jma,22,2,"<?xml version=""1.0""?>\n<Clock xmlns:dt=""urn:schemas-microsoft-com:datatypes""><Description dt:dt=""string"">E-Prime Primary Realtime Clock</Description><StartTime><Timestamp dt:dt=""int"">0</Timestamp><DateUtc dt:dt=""string"">2011-07-09T23:33:13Z</DateUtc></StartTime><FrequencyChanges><FrequencyChange><Frequency dt:dt=""r8"">3192110000</Frequency><Timestamp dt:dt=""r8"">375573105760</Timestamp><Current dt:dt=""r8"">0</Current><DateUtc dt:dt=""string"">1969-12-31T18:46:40Z</DateUtc></FrequencyChange></FrequencyChanges></Clock>\n",74.999,1,1123590284,38936,0.570462963,3,1,1,1,101024,1,1920,3,2500,3,1,3,AdditionProc,List1,8 + 3 = 11,complex,1addition_060418_jma,22,2,"<?xml version=""1.0""?>\n<Clock xmlns:dt=""urn:schemas-microsoft-com:datatypes""><Description dt:dt=""string"">E-Prime Primary Realtime Clock</Description><StartTime><Timestamp dt:dt=""int"">0</Timestamp><DateUtc dt:dt=""string"">2011-07-09T23:33:13Z</DateUtc></StartTime><FrequencyChanges><FrequencyChange><Frequency dt:dt=""r8"">3192110000</Frequency><Timestamp dt:dt=""r8"">375573105760</Timestamp><Current dt:dt=""r8"">0</Current><DateUtc dt:dt=""string"">1969-12-31T18:46:40Z</DateUtc></FrequencyChange></FrequencyChanges></Clock>\n",74.999,1,1123590284,38936,0.570462963,4,2,1,2,109038,2,4855,4,3500,4,1,4,AdditionProc,List1,4 + 9 = 12,complex,1addition_060418_jma,22,2,"<?xml version=""1.0""?>\n<Clock xmlns:dt=""urn:schemas-microsoft-com:datatypes""><Description dt:dt=""string"">E-Prime Primary Realtime Clock</Description><StartTime><Timestamp dt:dt=""int"">0</Timestamp><DateUtc dt:dt=""string"">2011-07-09T23:33:13Z</DateUtc></StartTime><FrequencyChanges><FrequencyChange><Frequency dt:dt=""r8"">3192110000</Frequency><Timestamp dt:dt=""r8"">375573105760</Timestamp><Current dt:dt=""r8"">0</Current><DateUtc dt:dt=""string"">1969-12-31T18:46:40Z</DateUtc></FrequencyChange></FrequencyChanges></Clock>\n",74.999,1,1123590284,38936,0.570462963,5,2,1,2,118052,2,1699,5,0,5,1,5,AdditionProc,List1,6 + 1 = 6,simple,1addition_060418_jma,22,2,"<?xml version=""1.0""?>\n<Clock xmlns:dt=""urn:schemas-microsoft-com:datatypes""><Description dt:dt=""string"">E-Prime Primary Realtime Clock</Description><StartTime><Timestamp dt:dt=""int"">0</Timestamp><DateUtc dt:dt=""string"">2011-07-09T23:33:13Z</DateUtc></StartTime><FrequencyChanges><FrequencyChange><Frequency dt:dt=""r8"">3192110000</Frequency><Timestamp dt:dt=""r8"">375573105760</Timestamp><Current dt:dt=""r8"">0</Current><DateUtc dt:dt=""string"">1969-12-31T18:46:40Z</DateUtc></FrequencyChange></FrequencyChanges></Clock>\n",74.999,1,1123590284,38936,0.570462963,6,2,1,2,123572,2,2794,6,0,6,1,6,AdditionProc,List1,9 + 4 = 15,complex,1addition_060418_jma,22,2,"<?xml version=""1.0""?>\n<Clock xmlns:dt=""urn:schemas-microsoft-com:datatypes""><Description dt:dt=""string"">E-Prime Primary Realtime Clock</Description><StartTime><Timestamp dt:dt=""int"">0</Timestamp><DateUtc dt:dt=""string"">2011-07-09T23:33:13Z</DateUtc></StartTime><FrequencyChanges><FrequencyChange><Frequency dt:dt=""r8"">3192110000</Frequency><Timestamp dt:dt=""r8"">375573105760</Timestamp><Current dt:dt=""r8"">0</Current><DateUtc dt:dt=""string"">1969-12-31T18:46:40Z</DateUtc></FrequencyChange></FrequencyChanges></Clock>\n",74.999,1,1123590284,38936,0.570462963,7,2,1,2,129092,2,4327,7,3500,7,1,7,AdditionProc,List1,8 + 5 = 14,complex,1addition_060418_jma,22,2,"<?xml version=""1.0""?>\n<Clock xmlns:dt=""urn:schemas-microsoft-com:datatypes""><Description dt:dt=""string"">E-Prime Primary Realtime Clock</Description><StartTime><Timestamp dt:dt=""int"">0</Timestamp><DateUtc dt:dt=""string"">2011-07-09T23:33:13Z</DateUtc></StartTime><FrequencyChanges><FrequencyChange><Frequency dt:dt=""r8"">3192110000</Frequency><Timestamp dt:dt=""r8"">375573105760</Timestamp><Current dt:dt=""r8"">0</Current><DateUtc dt:dt=""string"">1969-12-31T18:46:40Z</DateUtc></FrequencyChange></FrequencyChanges></Clock>\n",74.999,1,1123590284,38936,0.570462963,8,1,1,1,138106,1,1696,8,0,8,1,8,AdditionProc,List1,2 + 5 = 7,complex,1addition_060418_jma,22,2,"<?xml version=""1.0""?>\n<Clock xmlns:dt=""urn:schemas-microsoft-com:datatypes""><Description dt:dt=""string"">E-Prime Primary Realtime Clock</Description><StartTime><Timestamp dt:dt=""int"">0</Timestamp><DateUtc dt:dt=""string"">2011-07-09T23:33:13Z</DateUtc></StartTime><FrequencyChanges><FrequencyChange><Frequency dt:dt=""r8"">3192110000</Frequency><Timestamp dt:dt=""r8"">375573105760</Timestamp><Current dt:dt=""r8"">0</Current><DateUtc dt:dt=""string"">1969-12-31T18:46:40Z</DateUtc></FrequencyChange></FrequencyChanges></Clock>\n",74.999,1,1123590284,38936,0.570462963,9,1,1,1,143626,1,1491,9,0,9,1,9,AdditionProc,List1,4 + 2 = 6,complex,1addition_060418_jma,22,2,"<?xml version=""1.0""?>\n<Clock xmlns:dt=""urn:schemas-microsoft-com:datatypes""><Description dt:dt=""string"">E-Prime Primary Realtime Clock</Description><StartTime><Timestamp dt:dt=""int"">0</Timestamp><DateUtc dt:dt=""string"">2011-07-09T23:33:13Z</DateUtc></StartTime><FrequencyChanges><FrequencyChange><Frequency dt:dt=""r8"">3192110000</Frequency><Timestamp dt:dt=""r8"">375573105760</Timestamp><Current dt:dt=""r8"">0</Current><DateUtc dt:dt=""string"">1969-12-31T18:46:40Z</DateUtc></FrequencyChange></FrequencyChanges></Clock>\n",74.999,1,1123590284,38936,0.570462963,10,2,1,2,149146,2,2574,10,2500,10,1,10,AdditionProc,List1,5 + 3 = 10,complex,1addition_060418_jma,22,2,"<?xml version=""1.0""?>\n<Clock xmlns:dt=""urn:schemas-microsoft-com:datatypes""><Description dt:dt=""string"">E-Prime Primary Realtime Clock</Description><StartTime><Timestamp dt:dt=""int"">0</Timestamp><DateUtc dt:dt=""string"">2011-07-09T23:33:13Z</DateUtc></StartTime><FrequencyChanges><FrequencyChange><Frequency dt:dt=""r8"">3192110000</Frequency><Timestamp dt:dt=""r8"">375573105760</Timestamp><Current dt:dt=""r8"">0</Current><DateUtc dt:dt=""string"">1969-12-31T18:46:40Z</DateUtc></FrequencyChange></FrequencyChanges></Clock>\n",74.999,1,1123590284,38936,0.570462963,11,1,0,1,157160,,0,11,2500,11,1,11,AdditionProc,List1,9 + 3 = 12,complex,0addition_060418_jma,22,2,"<?xml version=""1.0""?>\n<Clock xmlns:dt=""urn:schemas-microsoft-com:datatypes""><Description dt:dt=""string"">E-Prime Primary Realtime Clock</Description><StartTime><Timestamp dt:dt=""int"">0</Timestamp><DateUtc dt:dt=""string"">2011-07-09T23:33:13Z</DateUtc></StartTime><FrequencyChanges><FrequencyChange><Frequency dt:dt=""r8"">3192110000</Frequency><Timestamp dt:dt=""r8"">375573105760</Timestamp><Current dt:dt=""r8"">0</Current><DateUtc dt:dt=""string"">1969-12-31T18:46:40Z</DateUtc></FrequencyChange></FrequencyChanges></Clock>\n",74.999,1,1123590284,38936,0.570462963,12,1,0,1,165173,2,1653,12,0,12,1,12,AdditionProc,List1,1 + 4 = 5,simple,0addition_060418_jma,22,2,"<?xml version=""1.0""?>\n<Clock xmlns:dt=""urn:schemas-microsoft-com:datatypes""><Description dt:dt=""string"">E-Prime Primary Realtime Clock</Description><StartTime><Timestamp dt:dt=""int"">0</Timestamp><DateUtc dt:dt=""string"">2011-07-09T23:33:13Z</DateUtc></StartTime><FrequencyChanges><FrequencyChange><Frequency dt:dt=""r8"">3192110000</Frequency><Timestamp dt:dt=""r8"">375573105760</Timestamp><Current dt:dt=""r8"">0</Current><DateUtc dt:dt=""string"">1969-12-31T18:46:40Z</DateUtc></FrequencyChange></FrequencyChanges></Clock>\n",74.999,1,1123590284,38936,0.570462963,13,1,1,1,170694,1,1442,13,2500,13,1,13,AdditionProc,List1,1 + 4 = 5,simple,1addition_060418_jma,22,2,"<?xml version=""1.0""?>\n<Clock xmlns:dt=""urn:schemas-microsoft-com:datatypes""><Description dt:dt=""string"">E-Prime Primary Realtime Clock</Description><StartTime><Timestamp dt:dt=""int"">0</Timestamp><DateUtc dt:dt=""string"">2011-07-09T23:33:13Z</DateUtc></StartTime><FrequencyChanges><FrequencyChange><Frequency dt:dt=""r8"">3192110000</Frequency><Timestamp dt:dt=""r8"">375573105760</Timestamp><Current dt:dt=""r8"">0</Current><DateUtc dt:dt=""string"">1969-12-31T18:46:40Z</DateUtc></FrequencyChange></FrequencyChanges></Clock>\n",74.999,1,1123590284,38936,0.570462963,14,1,1,1,178707,1,3425,14,3500,14,1,14,AdditionProc,List1,2 + 7 = 9,complex,1addition_060418_jma,22,2,"<?xml version=""1.0""?>\n<Clock xmlns:dt=""urn:schemas-microsoft-com:datatypes""><Description dt:dt=""string"">E-Prime Primary Realtime Clock</Description><StartTime><Timestamp dt:dt=""int"">0</Timestamp><DateUtc dt:dt=""string"">2011-07-09T23:33:13Z</DateUtc></StartTime><FrequencyChanges><FrequencyChange><Frequency dt:dt=""r8"">3192110000</Frequency><Timestamp dt:dt=""r8"">375573105760</Timestamp><Current dt:dt=""r8"">0</Current><DateUtc dt:dt=""string"">1969-12-31T18:46:40Z</DateUtc></FrequencyChange></FrequencyChanges></Clock>\n",74.999,1,1123590284,38936,0.570462963,15,2,1,2,187721,2,1994,15,3500,15,1,15,AdditionProc,List1,3 + 1 = 6,simple,1addition_060418_jma,22,2,"<?xml version=""1.0""?>\n<Clock xmlns:dt=""urn:schemas-microsoft-com:datatypes""><Description dt:dt=""string"">E-Prime Primary Realtime Clock</Description><StartTime><Timestamp dt:dt=""int"">0</Timestamp><DateUtc dt:dt=""string"">2011-07-09T23:33:13Z</DateUtc></StartTime><FrequencyChanges><FrequencyChange><Frequency dt:dt=""r8"">3192110000</Frequency><Timestamp dt:dt=""r8"">375573105760</Timestamp><Current dt:dt=""r8"">0</Current><DateUtc dt:dt=""string"">1969-12-31T18:46:40Z</DateUtc></FrequencyChange></FrequencyChanges></Clock>\n",74.999,1,1123590284,38936,0.570462963,16,2,1,2,196734,2,4530,16,3500,16,1,16,AdditionProc,List1,1 + 4 = 6,simple,1addition_060418_jma,22,2,"<?xml version=""1.0""?>\n<Clock xmlns:dt=""urn:schemas-microsoft-com:datatypes""><Description dt:dt=""string"">E-Prime Primary Realtime Clock</Description><StartTime><Timestamp dt:dt=""int"">0</Timestamp><DateUtc dt:dt=""string"">2011-07-09T23:33:13Z</DateUtc></StartTime><FrequencyChanges><FrequencyChange><Frequency dt:dt=""r8"">3192110000</Frequency><Timestamp dt:dt=""r8"">375573105760</Timestamp><Current dt:dt=""r8"">0</Current><DateUtc dt:dt=""string"">1969-12-31T18:46:40Z</DateUtc></FrequencyChange></FrequencyChanges></Clock>\n",74.999,1,1123590284,38936,0.570462963,17,1,0,1,205748,2,1802,17,0,17,1,17,AdditionProc,List1,4 + 6 = 10,complex,0addition_060418_jma,22,2,"<?xml version=""1.0""?>\n<Clock xmlns:dt=""urn:schemas-microsoft-com:datatypes""><Description dt:dt=""string"">E-Prime Primary Realtime Clock</Description><StartTime><Timestamp dt:dt=""int"">0</Timestamp><DateUtc dt:dt=""string"">2011-07-09T23:33:13Z</DateUtc></StartTime><FrequencyChanges><FrequencyChange><Frequency dt:dt=""r8"">3192110000</Frequency><Timestamp dt:dt=""r8"">375573105760</Timestamp><Current dt:dt=""r8"">0</Current><DateUtc dt:dt=""string"">1969-12-31T18:46:40Z</DateUtc></FrequencyChange></FrequencyChanges></Clock>\n",74.999,1,1123590284,38936,0.570462963,18,2,1,2,211268,2,2831,18,3500,18,1,18,AdditionProc,List1,5 + 7 = 13,complex,1addition_060418_jma,22,2,"<?xml version=""1.0""?>\n<Clock xmlns:dt=""urn:schemas-microsoft-com:datatypes""><Description dt:dt=""string"">E-Prime Primary Realtime Clock</Description><StartTime><Timestamp dt:dt=""int"">0</Timestamp><DateUtc dt:dt=""string"">2011-07-09T23:33:13Z</DateUtc></StartTime><FrequencyChanges><FrequencyChange><Frequency dt:dt=""r8"">3192110000</Frequency><Timestamp dt:dt=""r8"">375573105760</Timestamp><Current dt:dt=""r8"">0</Current><DateUtc dt:dt=""string"">1969-12-31T18:46:40Z</DateUtc></FrequencyChange></FrequencyChanges></Clock>\n",74.999,1,1123590284,38936,0.570462963,19,2,1,2,220282,2,2223,19,2500,19,1,19,AdditionProc,List1,1 + 6 = 9,simple,1addition_060418_jma,22,2,"<?xml version=""1.0""?>\n<Clock xmlns:dt=""urn:schemas-microsoft-com:datatypes""><Description dt:dt=""string"">E-Prime Primary Realtime Clock</Description><StartTime><Timestamp dt:dt=""int"">0</Timestamp><DateUtc dt:dt=""string"">2011-07-09T23:33:13Z</DateUtc></StartTime><FrequencyChanges><FrequencyChange><Frequency dt:dt=""r8"">3192110000</Frequency><Timestamp dt:dt=""r8"">375573105760</Timestamp><Current dt:dt=""r8"">0</Current><DateUtc dt:dt=""string"">1969-12-31T18:46:40Z</DateUtc></FrequencyChange></FrequencyChanges></Clock>\n",74.999,1,1123590284,38936,0.570462963,20,2,1,2,228296,2,3864,20,0,20,1,20,AdditionProc,List1,5 + 2 = 8,complex,1addition_060418_jma,22,2,"<?xml version=""1.0""?>\n<Clock xmlns:dt=""urn:schemas-microsoft-com:datatypes""><Description dt:dt=""string"">E-Prime Primary Realtime Clock</Description><StartTime><Timestamp dt:dt=""int"">0</Timestamp><DateUtc dt:dt=""string"">2011-07-09T23:33:13Z</DateUtc></StartTime><FrequencyChanges><FrequencyChange><Frequency dt:dt=""r8"">3192110000</Frequency><Timestamp dt:dt=""r8"">375573105760</Timestamp><Current dt:dt=""r8"">0</Current><DateUtc dt:dt=""string"">1969-12-31T18:46:40Z</DateUtc></FrequencyChange></FrequencyChanges></Clock>\n",74.999,1,1123590284,38936,0.570462963,21,1,1,1,233816,1,1848,21,2500,21,1,21,AdditionProc,List1,4 + 1 = 5,simple,1addition_060418_jma,22,2,"<?xml version=""1.0""?>\n<Clock xmlns:dt=""urn:schemas-microsoft-com:datatypes""><Description dt:dt=""string"">E-Prime Primary Realtime Clock</Description><StartTime><Timestamp dt:dt=""int"">0</Timestamp><DateUtc dt:dt=""string"">2011-07-09T23:33:13Z</DateUtc></StartTime><FrequencyChanges><FrequencyChange><Frequency dt:dt=""r8"">3192110000</Frequency><Timestamp dt:dt=""r8"">375573105760</Timestamp><Current dt:dt=""r8"">0</Current><DateUtc dt:dt=""string"">1969-12-31T18:46:40Z</DateUtc></FrequencyChange></FrequencyChanges></Clock>\n",74.999,1,1123590284,38936,0.570462963,22,2,1,2,241829,2,3485,22,0,22,1,22,AdditionProc,List1,5 + 1 = 8,simple,1addition_060418_jma,22,2,"<?xml version=""1.0""?>\n<Clock xmlns:dt=""urn:schemas-microsoft-com:datatypes""><Description dt:dt=""string"">E-Prime Primary Realtime Clock</Description><StartTime><Timestamp dt:dt=""int"">0</Timestamp><DateUtc dt:dt=""string"">2011-07-09T23:33:13Z</DateUtc></StartTime><FrequencyChanges><FrequencyChange><Frequency dt:dt=""r8"">3192110000</Frequency><Timestamp dt:dt=""r8"">375573105760</Timestamp><Current dt:dt=""r8"">0</Current><DateUtc dt:dt=""string"">1969-12-31T18:46:40Z</DateUtc></FrequencyChange></FrequencyChanges></Clock>\n",74.999,1,1123590284,38936,0.570462963,23,2,1,2,247350,2,3494,23,0,23,1,23,AdditionProc,List1,1 + 9 = 11,simple,1addition_060418_jma,22,2,"<?xml version=""1.0""?>\n<Clock xmlns:dt=""urn:schemas-microsoft-com:datatypes""><Description dt:dt=""string"">E-Prime Primary Realtime Clock</Description><StartTime><Timestamp dt:dt=""int"">0</Timestamp><DateUtc dt:dt=""string"">2011-07-09T23:33:13Z</DateUtc></StartTime><FrequencyChanges><FrequencyChange><Frequency dt:dt=""r8"">3192110000</Frequency><Timestamp dt:dt=""r8"">375573105760</Timestamp><Current dt:dt=""r8"">0</Current><DateUtc dt:dt=""string"">1969-12-31T18:46:40Z</DateUtc></FrequencyChange></FrequencyChanges></Clock>\n",74.999,1,1123590284,38936,0.570462963,24,1,0,1,252870,,0,24,0,24,1,24,AdditionProc,List1,3 + 8 = 11,complex,0addition_060418_jma,22,2,"<?xml version=""1.0""?>\n<Clock xmlns:dt=""urn:schemas-microsoft-com:datatypes""><Description dt:dt=""string"">E-Prime Primary Realtime Clock</Description><StartTime><Timestamp dt:dt=""int"">0</Timestamp><DateUtc dt:dt=""string"">2011-07-09T23:33:13Z</DateUtc></StartTime><FrequencyChanges><FrequencyChange><Frequency dt:dt=""r8"">3192110000</Frequency><Timestamp dt:dt=""r8"">375573105760</Timestamp><Current dt:dt=""r8"">0</Current><DateUtc dt:dt=""string"">1969-12-31T18:46:40Z</DateUtc></FrequencyChange></FrequencyChanges></Clock>\n",74.999,1,1123590284,38936,0.570462963,25,1,1,1,258390,1,2252,25,2500,25,1,25,AdditionProc,List1,4 + 1 = 5,simple,1addition_060418_jma,22,2,"<?xml version=""1.0""?>\n<Clock xmlns:dt=""urn:schemas-microsoft-com:datatypes""><Description dt:dt=""string"">E-Prime Primary Realtime Clock</Description><StartTime><Timestamp dt:dt=""int"">0</Timestamp><DateUtc dt:dt=""string"">2011-07-09T23:33:13Z</DateUtc></StartTime><FrequencyChanges><FrequencyChange><Frequency dt:dt=""r8"">3192110000</Frequency><Timestamp dt:dt=""r8"">375573105760</Timestamp><Current dt:dt=""r8"">0</Current><DateUtc dt:dt=""string"">1969-12-31T18:46:40Z</DateUtc></FrequencyChange></FrequencyChanges></Clock>\n",74.999,1,1123590284,38936,0.570462963,26,1,1,1,266404,1,1991,26,3500,26,1,26,AdditionProc,List1,1 + 8 = 9,simple,1addition_060418_jma,22,2,"<?xml version=""1.0""?>\n<Clock xmlns:dt=""urn:schemas-microsoft-com:datatypes""><Description dt:dt=""string"">E-Prime Primary Realtime Clock</Description><StartTime><Timestamp dt:dt=""int"">0</Timestamp><DateUtc dt:dt=""string"">2011-07-09T23:33:13Z</DateUtc></StartTime><FrequencyChanges><FrequencyChange><Frequency dt:dt=""r8"">3192110000</Frequency><Timestamp dt:dt=""r8"">375573105760</Timestamp><Current dt:dt=""r8"">0</Current><DateUtc dt:dt=""string"">1969-12-31T18:46:40Z</DateUtc></FrequencyChange></FrequencyChanges></Clock>\n",74.999,1,1123590284,38936,0.570462963,27,2,0,2,275417,,0,27,2500,27,1,27,AdditionProc,List1,8 + 4 = 13,complex,0addition_060418_jma,22,2,"<?xml version=""1.0""?>\n<Clock xmlns:dt=""urn:schemas-microsoft-com:datatypes""><Description dt:dt=""string"">E-Prime Primary Realtime Clock</Description><StartTime><Timestamp dt:dt=""int"">0</Timestamp><DateUtc dt:dt=""string"">2011-07-09T23:33:13Z</DateUtc></StartTime><FrequencyChanges><FrequencyChange><Frequency dt:dt=""r8"">3192110000</Frequency><Timestamp dt:dt=""r8"">375573105760</Timestamp><Current dt:dt=""r8"">0</Current><DateUtc dt:dt=""string"">1969-12-31T18:46:40Z</DateUtc></FrequencyChange></FrequencyChanges></Clock>\n",74.999,1,1123590284,38936,0.570462963,28,1,1,1,283431,1,1313,28,0,28,1,28,AdditionProc,List1,6 + 5 = 11,complex,1addition_060418_jma,22,2,"<?xml version=""1.0""?>\n<Clock xmlns:dt=""urn:schemas-microsoft-com:datatypes""><Description dt:dt=""string"">E-Prime Primary Realtime Clock</Description><StartTime><Timestamp dt:dt=""int"">0</Timestamp><DateUtc dt:dt=""string"">2011-07-09T23:33:13Z</DateUtc></StartTime><FrequencyChanges><FrequencyChange><Frequency dt:dt=""r8"">3192110000</Frequency><Timestamp dt:dt=""r8"">375573105760</Timestamp><Current dt:dt=""r8"">0</Current><DateUtc dt:dt=""string"">1969-12-31T18:46:40Z</DateUtc></FrequencyChange></FrequencyChanges></Clock>\n",74.999,1,1123590284,38936,0.570462963,29,2,1,2,288951,2,4775,29,0,29,1,29,AdditionProc,List1,8 + 4 = 11,complex,1addition_060418_jma,22,2,"<?xml version=""1.0""?>\n<Clock xmlns:dt=""urn:schemas-microsoft-com:datatypes""><Description dt:dt=""string"">E-Prime Primary Realtime Clock</Description><StartTime><Timestamp dt:dt=""int"">0</Timestamp><DateUtc dt:dt=""string"">2011-07-09T23:33:13Z</DateUtc></StartTime><FrequencyChanges><FrequencyChange><Frequency dt:dt=""r8"">3192110000</Frequency><Timestamp dt:dt=""r8"">375573105760</Timestamp><Current dt:dt=""r8"">0</Current><DateUtc dt:dt=""string"">1969-12-31T18:46:40Z</DateUtc></FrequencyChange></FrequencyChanges></Clock>\n",74.999,1,1123590284,38936,0.570462963,30,1,1,1,294471,1,2800,30,2500,30,1,30,AdditionProc,List1,3 + 1 = 4,simple,1addition_060418_jma,22,2,"<?xml version=""1.0""?>\n<Clock xmlns:dt=""urn:schemas-microsoft-com:datatypes""><Description dt:dt=""string"">E-Prime Primary Realtime Clock</Description><StartTime><Timestamp dt:dt=""int"">0</Timestamp><DateUtc dt:dt=""string"">2011-07-09T23:33:13Z</DateUtc></StartTime><FrequencyChanges><FrequencyChange><Frequency dt:dt=""r8"">3192110000</Frequency><Timestamp dt:dt=""r8"">375573105760</Timestamp><Current dt:dt=""r8"">0</Current><DateUtc dt:dt=""string"">1969-12-31T18:46:40Z</DateUtc></FrequencyChange></FrequencyChanges></Clock>\n",74.999,1,1123590284,38936,0.570462963,31,1,1,1,302485,1,1336,31,0,31,1,31,AdditionProc,List1,1 + 8 = 9,simple,1addition_060418_jma,22,2,"<?xml version=""1.0""?>\n<Clock xmlns:dt=""urn:schemas-microsoft-com:datatypes""><Description dt:dt=""string"">E-Prime Primary Realtime Clock</Description><StartTime><Timestamp dt:dt=""int"">0</Timestamp><DateUtc dt:dt=""string"">2011-07-09T23:33:13Z</DateUtc></StartTime><FrequencyChanges><FrequencyChange><Frequency dt:dt=""r8"">3192110000</Frequency><Timestamp dt:dt=""r8"">375573105760</Timestamp><Current dt:dt=""r8"">0</Current><DateUtc dt:dt=""string"">1969-12-31T18:46:40Z</DateUtc></FrequencyChange></FrequencyChanges></Clock>\n",74.999,1,1123590284,38936,0.570462963,32,1,1,1,308005,1,4202,32,0,32,1,32,AdditionProc,List1,2 + 1 = 3,simple,1addition_060418_jma,22,2,"<?xml version=""1.0""?>\n<Clock xmlns:dt=""urn:schemas-microsoft-com:datatypes""><Description dt:dt=""string"">E-Prime Primary Realtime Clock</Description><StartTime><Timestamp dt:dt=""int"">0</Timestamp><DateUtc dt:dt=""string"">2011-07-09T23:33:13Z</DateUtc></StartTime><FrequencyChanges><FrequencyChange><Frequency dt:dt=""r8"">3192110000</Frequency><Timestamp dt:dt=""r8"">375573105760</Timestamp><Current dt:dt=""r8"">0</Current><DateUtc dt:dt=""string"">1969-12-31T18:46:40Z</DateUtc></FrequencyChange></FrequencyChanges></Clock>\n",74.999,1,1123590284,38936,0.570462963,33,2,0,2,313525,,0,33,2500,33,1,33,AdditionProc,List1,1 + 7 = 6,simple,0addition_060418_jma,22,2,"<?xml version=""1.0""?>\n<Clock xmlns:dt=""urn:schemas-microsoft-com:datatypes""><Description dt:dt=""string"">E-Prime Primary Realtime Clock</Description><StartTime><Timestamp dt:dt=""int"">0</Timestamp><DateUtc dt:dt=""string"">2011-07-09T23:33:13Z</DateUtc></StartTime><FrequencyChanges><FrequencyChange><Frequency dt:dt=""r8"">3192110000</Frequency><Timestamp dt:dt=""r8"">375573105760</Timestamp><Current dt:dt=""r8"">0</Current><DateUtc dt:dt=""string"">1969-12-31T18:46:40Z</DateUtc></FrequencyChange></FrequencyChanges></Clock>\n",74.999,1,1123590284,38936,0.570462963,34,2,1,2,321539,2,2474,34,3500,34,1,34,AdditionProc,List1,7 + 4 = 10,complex,1addition_060418_jma,22,2,"<?xml version=""1.0""?>\n<Clock xmlns:dt=""urn:schemas-microsoft-com:datatypes""><Description dt:dt=""string"">E-Prime Primary Realtime Clock</Description><StartTime><Timestamp dt:dt=""int"">0</Timestamp><DateUtc dt:dt=""string"">2011-07-09T23:33:13Z</DateUtc></StartTime><FrequencyChanges><FrequencyChange><Frequency dt:dt=""r8"">3192110000</Frequency><Timestamp dt:dt=""r8"">375573105760</Timestamp><Current dt:dt=""r8"">0</Current><DateUtc dt:dt=""string"">1969-12-31T18:46:40Z</DateUtc></FrequencyChange></FrequencyChanges></Clock>\n",74.999,1,1123590284,38936,0.570462963,35,1,1,1,330553,1,1426,35,3500,35,1,35,AdditionProc,List1,4 + 3 = 7,complex,1addition_060418_jma,22,2,"<?xml version=""1.0""?>\n<Clock xmlns:dt=""urn:schemas-microsoft-com:datatypes""><Description dt:dt=""string"">E-Prime Primary Realtime Clock</Description><StartTime><Timestamp dt:dt=""int"">0</Timestamp><DateUtc dt:dt=""string"">2011-07-09T23:33:13Z</DateUtc></StartTime><FrequencyChanges><FrequencyChange><Frequency dt:dt=""r8"">3192110000</Frequency><Timestamp dt:dt=""r8"">375573105760</Timestamp><Current dt:dt=""r8"">0</Current><DateUtc dt:dt=""string"">1969-12-31T18:46:40Z</DateUtc></FrequencyChange></FrequencyChanges></Clock>\n",74.999,1,1123590284,38936,0.570462963,36,1,1,1,339566,1,3568,36,2500,36,1,36,AdditionProc,List1,2 + 4 = 6,complex,1addition_060418_jma,22,2,"<?xml version=""1.0""?>\n<Clock xmlns:dt=""urn:schemas-microsoft-com:datatypes""><Description dt:dt=""string"">E-Prime Primary Realtime Clock</Description><StartTime><Timestamp dt:dt=""int"">0</Timestamp><DateUtc dt:dt=""string"">2011-07-09T23:33:13Z</DateUtc></StartTime><FrequencyChanges><FrequencyChange><Frequency dt:dt=""r8"">3192110000</Frequency><Timestamp dt:dt=""r8"">375573105760</Timestamp><Current dt:dt=""r8"">0</Current><DateUtc dt:dt=""string"">1969-12-31T18:46:40Z</DateUtc></FrequencyChange></FrequencyChanges></Clock>\n",74.999,1,1123590284,38936,0.570462963,37,1,0,1,347580,2,1470,37,0,37,1,37,AdditionProc,List1,9 + 1 = 10,simple,0addition_060418_jma,22,2,"<?xml version=""1.0""?>\n<Clock xmlns:dt=""urn:schemas-microsoft-com:datatypes""><Description dt:dt=""string"">E-Prime Primary Realtime Clock</Description><StartTime><Timestamp dt:dt=""int"">0</Timestamp><DateUtc dt:dt=""string"">2011-07-09T23:33:13Z</DateUtc></StartTime><FrequencyChanges><FrequencyChange><Frequency dt:dt=""r8"">3192110000</Frequency><Timestamp dt:dt=""r8"">375573105760</Timestamp><Current dt:dt=""r8"">0</Current><DateUtc dt:dt=""string"">1969-12-31T18:46:40Z</DateUtc></FrequencyChange></FrequencyChanges></Clock>\n",74.999,1,1123590284,38936,0.570462963,38,2,1,2,353100,2,1697,38,3500,38,1,38,AdditionProc,List1,1 + 7 = 7,simple,1addition_060418_jma,22,2,"<?xml version=""1.0""?>\n<Clock xmlns:dt=""urn:schemas-microsoft-com:datatypes""><Description dt:dt=""string"">E-Prime Primary Realtime Clock</Description><StartTime><Timestamp dt:dt=""int"">0</Timestamp><DateUtc dt:dt=""string"">2011-07-09T23:33:13Z</DateUtc></StartTime><FrequencyChanges><FrequencyChange><Frequency dt:dt=""r8"">3192110000</Frequency><Timestamp dt:dt=""r8"">375573105760</Timestamp><Current dt:dt=""r8"">0</Current><DateUtc dt:dt=""string"">1969-12-31T18:46:40Z</DateUtc></FrequencyChange></FrequencyChanges></Clock>\n",74.999,1,1123590284,38936,0.570462963,39,2,1,2,362114,2,2874,39,2500,39,1,39,AdditionProc,List1,6 + 4 = 8,complex,1addition_060418_jma,22,2,"<?xml version=""1.0""?>\n<Clock xmlns:dt=""urn:schemas-microsoft-com:datatypes""><Description dt:dt=""string"">E-Prime Primary Realtime Clock</Description><StartTime><Timestamp dt:dt=""int"">0</Timestamp><DateUtc dt:dt=""string"">2011-07-09T23:33:13Z</DateUtc></StartTime><FrequencyChanges><FrequencyChange><Frequency dt:dt=""r8"">3192110000</Frequency><Timestamp dt:dt=""r8"">375573105760</Timestamp><Current dt:dt=""r8"">0</Current><DateUtc dt:dt=""string"">1969-12-31T18:46:40Z</DateUtc></FrequencyChange></FrequencyChanges></Clock>\n",74.999,1,1123590284,38936,0.570462963,40,1,0,1,370127,2,2103,40,2500,40,1,40,AdditionProc,List1,5 + 9 = 14,complex,0addition_060418_jma,22,2,"<?xml version=""1.0""?>\n<Clock xmlns:dt=""urn:schemas-microsoft-com:datatypes""><Description dt:dt=""string"">E-Prime Primary Realtime Clock</Description><StartTime><Timestamp dt:dt=""int"">0</Timestamp><DateUtc dt:dt=""string"">2011-07-09T23:33:13Z</DateUtc></StartTime><FrequencyChanges><FrequencyChange><Frequency dt:dt=""r8"">3192110000</Frequency><Timestamp dt:dt=""r8"">375573105760</Timestamp><Current dt:dt=""r8"">0</Current><DateUtc dt:dt=""string"">1969-12-31T18:46:40Z</DateUtc></FrequencyChange></FrequencyChanges></Clock>\n",74.999,1,1123590284,38936,0.570462963,41,1,1,1,378141,1,2058,41,0,41,1,41,AdditionProc,List1,8 + 1 = 9,simple,1addition_060418_jma,22,2,"<?xml version=""1.0""?>\n<Clock xmlns:dt=""urn:schemas-microsoft-com:datatypes""><Description dt:dt=""string"">E-Prime Primary Realtime Clock</Description><StartTime><Timestamp dt:dt=""int"">0</Timestamp><DateUtc dt:dt=""string"">2011-07-09T23:33:13Z</DateUtc></StartTime><FrequencyChanges><FrequencyChange><Frequency dt:dt=""r8"">3192110000</Frequency><Timestamp dt:dt=""r8"">375573105760</Timestamp><Current dt:dt=""r8"">0</Current><DateUtc dt:dt=""string"">1969-12-31T18:46:40Z</DateUtc></FrequencyChange></FrequencyChanges></Clock>\n",74.999,1,1123590284,38936,0.570462963,42,1,0,1,383661,,0,42,3500,42,1,42,AdditionProc,List1,2 + 1 = 3,simple,0addition_060418_jma,22,2,"<?xml version=""1.0""?>\n<Clock xmlns:dt=""urn:schemas-microsoft-com:datatypes""><Description dt:dt=""string"">E-Prime Primary Realtime Clock</Description><StartTime><Timestamp dt:dt=""int"">0</Timestamp><DateUtc dt:dt=""string"">2011-07-09T23:33:13Z</DateUtc></StartTime><FrequencyChanges><FrequencyChange><Frequency dt:dt=""r8"">3192110000</Frequency><Timestamp dt:dt=""r8"">375573105760</Timestamp><Current dt:dt=""r8"">0</Current><DateUtc dt:dt=""string"">1969-12-31T18:46:40Z</DateUtc></FrequencyChange></FrequencyChanges></Clock>\n",74.999,1,1123590284,38936,0.570462963,43,1,0,1,392675,,0,43,0,43,1,43,AdditionProc,List1,8 + 2 = 10,complex,0addition_060418_jma,22,2,"<?xml version=""1.0""?>\n<Clock xmlns:dt=""urn:schemas-microsoft-com:datatypes""><Description dt:dt=""string"">E-Prime Primary Realtime Clock</Description><StartTime><Timestamp dt:dt=""int"">0</Timestamp><DateUtc dt:dt=""string"">2011-07-09T23:33:13Z</DateUtc></StartTime><FrequencyChanges><FrequencyChange><Frequency dt:dt=""r8"">3192110000</Frequency><Timestamp dt:dt=""r8"">375573105760</Timestamp><Current dt:dt=""r8"">0</Current><DateUtc dt:dt=""string"">1969-12-31T18:46:40Z</DateUtc></FrequencyChange></FrequencyChanges></Clock>\n",74.999,1,1123590284,38936,0.570462963,44,2,1,2,398195,2,2421,44,2500,44,1,44,AdditionProc,List1,5 + 8 = 14,complex,1addition_060418_jma,22,2,"<?xml version=""1.0""?>\n<Clock xmlns:dt=""urn:schemas-microsoft-com:datatypes""><Description dt:dt=""string"">E-Prime Primary Realtime Clock</Description><StartTime><Timestamp dt:dt=""int"">0</Timestamp><DateUtc dt:dt=""string"">2011-07-09T23:33:13Z</DateUtc></StartTime><FrequencyChanges><FrequencyChange><Frequency dt:dt=""r8"">3192110000</Frequency><Timestamp dt:dt=""r8"">375573105760</Timestamp><Current dt:dt=""r8"">0</Current><DateUtc dt:dt=""string"">1969-12-31T18:46:40Z</DateUtc></FrequencyChange></FrequencyChanges></Clock>\n",74.999,1,1123590284,38936,0.570462963,45,2,1,2,406209,2,3535,45,0,45,1,45,AdditionProc,List1,3 + 7 = 8,complex,1addition_060418_jma,22,2,"<?xml version=""1.0""?>\n<Clock xmlns:dt=""urn:schemas-microsoft-com:datatypes""><Description dt:dt=""string"">E-Prime Primary Realtime Clock</Description><StartTime><Timestamp dt:dt=""int"">0</Timestamp><DateUtc dt:dt=""string"">2011-07-09T23:33:13Z</DateUtc></StartTime><FrequencyChanges><FrequencyChange><Frequency dt:dt=""r8"">3192110000</Frequency><Timestamp dt:dt=""r8"">375573105760</Timestamp><Current dt:dt=""r8"">0</Current><DateUtc dt:dt=""string"">1969-12-31T18:46:40Z</DateUtc></FrequencyChange></FrequencyChanges></Clock>\n",74.999,1,1123590284,38936,0.570462963,46,1,1,1,411729,1,2682,46,2500,46,1,46,AdditionProc,List1,1 + 2 = 3,simple,1addition_060418_jma,22,2,"<?xml version=""1.0""?>\n<Clock xmlns:dt=""urn:schemas-microsoft-com:datatypes""><Description dt:dt=""string"">E-Prime Primary Realtime Clock</Description><StartTime><Timestamp dt:dt=""int"">0</Timestamp><DateUtc dt:dt=""string"">2011-07-09T23:33:13Z</DateUtc></StartTime><FrequencyChanges><FrequencyChange><Frequency dt:dt=""r8"">3192110000</Frequency><Timestamp dt:dt=""r8"">375573105760</Timestamp><Current dt:dt=""r8"">0</Current><DateUtc dt:dt=""string"">1969-12-31T18:46:40Z</DateUtc></FrequencyChange></FrequencyChanges></Clock>\n",74.999,1,1123590284,38936,0.570462963,47,1,1,1,419743,1,2379,47,0,47,1,47,AdditionProc,List1,8 + 1 = 9,simple,1addition_060418_jma,22,2,"<?xml version=""1.0""?>\n<Clock xmlns:dt=""urn:schemas-microsoft-com:datatypes""><Description dt:dt=""string"">E-Prime Primary Realtime Clock</Description><StartTime><Timestamp dt:dt=""int"">0</Timestamp><DateUtc dt:dt=""string"">2011-07-09T23:33:13Z</DateUtc></StartTime><FrequencyChanges><FrequencyChange><Frequency dt:dt=""r8"">3192110000</Frequency><Timestamp dt:dt=""r8"">375573105760</Timestamp><Current dt:dt=""r8"">0</Current><DateUtc dt:dt=""string"">1969-12-31T18:46:40Z</DateUtc></FrequencyChange></FrequencyChanges></Clock>\n",74.999,1,1123590284,38936,0.570462963,48,1,1,1,425263,1,1643,48,3500,48,1,48,AdditionProc,List1,1 + 5 = 6,simple,1addition_060418_jma,22,2,"<?xml version=""1.0""?>\n<Clock xmlns:dt=""urn:schemas-microsoft-com:datatypes""><Description dt:dt=""string"">E-Prime Primary Realtime Clock</Description><StartTime><Timestamp dt:dt=""int"">0</Timestamp><DateUtc dt:dt=""string"">2011-07-09T23:33:13Z</DateUtc></StartTime><FrequencyChanges><FrequencyChange><Frequency dt:dt=""r8"">3192110000</Frequency><Timestamp dt:dt=""r8"">375573105760</Timestamp><Current dt:dt=""r8"">0</Current><DateUtc dt:dt=""string"">1969-12-31T18:46:40Z</DateUtc></FrequencyChange></FrequencyChanges></Clock>\n",74.999,1,1123590284,38936,0.570462963,49,2,1,2,434276,2,1838,49,3500,49,1,49,AdditionProc,List1,4 + 1 = 6,simple,1addition_060418_jma,22,2,"<?xml version=""1.0""?>\n<Clock xmlns:dt=""urn:schemas-microsoft-com:datatypes""><Description dt:dt=""string"">E-Prime Primary Realtime Clock</Description><StartTime><Timestamp dt:dt=""int"">0</Timestamp><DateUtc dt:dt=""string"">2011-07-09T23:33:13Z</DateUtc></StartTime><FrequencyChanges><FrequencyChange><Frequency dt:dt=""r8"">3192110000</Frequency><Timestamp dt:dt=""r8"">375573105760</Timestamp><Current dt:dt=""r8"">0</Current><DateUtc dt:dt=""string"">1969-12-31T18:46:40Z</DateUtc></FrequencyChange></FrequencyChanges></Clock>\n",74.999,1,1123590284,38936,0.570462963,50,2,0,2,443290,1,2717,50,3500,50,1,50,AdditionProc,List1,3 + 4 = 5,complex,0addition_060418_jma,22,2,"<?xml version=""1.0""?>\n<Clock xmlns:dt=""urn:schemas-microsoft-com:datatypes""><Description dt:dt=""string"">E-Prime Primary Realtime Clock</Description><StartTime><Timestamp dt:dt=""int"">0</Timestamp><DateUtc dt:dt=""string"">2011-07-09T23:33:13Z</DateUtc></StartTime><FrequencyChanges><FrequencyChange><Frequency dt:dt=""r8"">3192110000</Frequency><Timestamp dt:dt=""r8"">375573105760</Timestamp><Current dt:dt=""r8"">0</Current><DateUtc dt:dt=""string"">1969-12-31T18:46:40Z</DateUtc></FrequencyChange></FrequencyChanges></Clock>\n",74.999,1,1123590284,38936,0.570462963,51,2,1,2,452304,2,2425,51,3500,51,1,51,AdditionProc,List1,4 + 8 = 14,complex,1addition_060418_jma,22,2,"<?xml version=""1.0""?>\n<Clock xmlns:dt=""urn:schemas-microsoft-com:datatypes""><Description dt:dt=""string"">E-Prime Primary Realtime Clock</Description><StartTime><Timestamp dt:dt=""int"">0</Timestamp><DateUtc dt:dt=""string"">2011-07-09T23:33:13Z</DateUtc></StartTime><FrequencyChanges><FrequencyChange><Frequency dt:dt=""r8"">3192110000</Frequency><Timestamp dt:dt=""r8"">375573105760</Timestamp><Current dt:dt=""r8"">0</Current><DateUtc dt:dt=""string"">1969-12-31T18:46:40Z</DateUtc></FrequencyChange></FrequencyChanges></Clock>\n",74.999,1,1123590284,38936,0.570462963,52,2,0,2,461317,1,1196,52,3500,52,1,52,AdditionProc,List1,1 + 3 = 2,simple,0addition_060418_jma,62,1,"<?xml version=""1.0""?>\n<Clock xmlns:dt=""urn:schemas-microsoft-com:datatypes""><Description dt:dt=""string"">E-Prime Primary Realtime Clock</Description><StartTime><Timestamp dt:dt=""int"">0</Timestamp><DateUtc dt:dt=""string"">2011-07-09T23:33:13Z</DateUtc></StartTime><FrequencyChanges><FrequencyChange><Frequency dt:dt=""r8"">3192110000</Frequency><Timestamp dt:dt=""r8"">375573105760</Timestamp><Current dt:dt=""r8"">0</Current><DateUtc dt:dt=""string"">1969-12-31T18:46:40Z</DateUtc></FrequencyChange></FrequencyChanges></Clock>\n",74.998,1,-941023829,38952,0.56212963,1,2,1,2,148886,2,3447,1,0,1,1,1,AdditionProc,List1,1 + 5 = 7,simple,1addition_060418_jma,62,1,"<?xml version=""1.0""?>\n<Clock xmlns:dt=""urn:schemas-microsoft-com:datatypes""><Description dt:dt=""string"">E-Prime Primary Realtime Clock</Description><StartTime><Timestamp dt:dt=""int"">0</Timestamp><DateUtc dt:dt=""string"">2011-07-09T23:33:13Z</DateUtc></StartTime><FrequencyChanges><FrequencyChange><Frequency dt:dt=""r8"">3192110000</Frequency><Timestamp dt:dt=""r8"">375573105760</Timestamp><Current dt:dt=""r8"">0</Current><DateUtc dt:dt=""string"">1969-12-31T18:46:40Z</DateUtc></FrequencyChange></FrequencyChanges></Clock>\n",74.998,1,-941023829,38952,0.56212963,2,1,1,1,154406,1,2218,2,2500,2,1,2,AdditionProc,List1,6 + 1 = 7,simple,1addition_060418_jma,62,1,"<?xml version=""1.0""?>\n<Clock xmlns:dt=""urn:schemas-microsoft-com:datatypes""><Description dt:dt=""string"">E-Prime Primary Realtime Clock</Description><StartTime><Timestamp dt:dt=""int"">0</Timestamp><DateUtc dt:dt=""string"">2011-07-09T23:33:13Z</DateUtc></StartTime><FrequencyChanges><FrequencyChange><Frequency dt:dt=""r8"">3192110000</Frequency><Timestamp dt:dt=""r8"">375573105760</Timestamp><Current dt:dt=""r8"">0</Current><DateUtc dt:dt=""string"">1969-12-31T18:46:40Z</DateUtc></FrequencyChange></FrequencyChanges></Clock>\n",74.998,1,-941023829,38952,0.56212963,3,2,0,2,162419,,0,3,2500,3,1,3,AdditionProc,List1,8 + 3 = 13,complex,0addition_060418_jma,62,1,"<?xml version=""1.0""?>\n<Clock xmlns:dt=""urn:schemas-microsoft-com:datatypes""><Description dt:dt=""string"">E-Prime Primary Realtime Clock</Description><StartTime><Timestamp dt:dt=""int"">0</Timestamp><DateUtc dt:dt=""string"">2011-07-09T23:33:13Z</DateUtc></StartTime><FrequencyChanges><FrequencyChange><Frequency dt:dt=""r8"">3192110000</Frequency><Timestamp dt:dt=""r8"">375573105760</Timestamp><Current dt:dt=""r8"">0</Current><DateUtc dt:dt=""string"">1969-12-31T18:46:40Z</DateUtc></FrequencyChange></FrequencyChanges></Clock>\n",74.998,1,-941023829,38952,0.56212963,4,2,1,2,170433,2,3490,4,3500,4,1,4,AdditionProc,List1,7 + 3 = 9,complex,1addition_060418_jma,62,1,"<?xml version=""1.0""?>\n<Clock xmlns:dt=""urn:schemas-microsoft-com:datatypes""><Description dt:dt=""string"">E-Prime Primary Realtime Clock</Description><StartTime><Timestamp dt:dt=""int"">0</Timestamp><DateUtc dt:dt=""string"">2011-07-09T23:33:13Z</DateUtc></StartTime><FrequencyChanges><FrequencyChange><Frequency dt:dt=""r8"">3192110000</Frequency><Timestamp dt:dt=""r8"">375573105760</Timestamp><Current dt:dt=""r8"">0</Current><DateUtc dt:dt=""string"">1969-12-31T18:46:40Z</DateUtc></FrequencyChange></FrequencyChanges></Clock>\n",74.998,1,-941023829,38952,0.56212963,5,2,1,2,179447,2,2577,5,0,5,1,5,AdditionProc,List1,5 + 1 = 7,simple,1addition_060418_jma,62,1,"<?xml version=""1.0""?>\n<Clock xmlns:dt=""urn:schemas-microsoft-com:datatypes""><Description dt:dt=""string"">E-Prime Primary Realtime Clock</Description><StartTime><Timestamp dt:dt=""int"">0</Timestamp><DateUtc dt:dt=""string"">2011-07-09T23:33:13Z</DateUtc></StartTime><FrequencyChanges><FrequencyChange><Frequency dt:dt=""r8"">3192110000</Frequency><Timestamp dt:dt=""r8"">375573105760</Timestamp><Current dt:dt=""r8"">0</Current><DateUtc dt:dt=""string"">1969-12-31T18:46:40Z</DateUtc></FrequencyChange></FrequencyChanges></Clock>\n",74.998,1,-941023829,38952,0.56212963,6,1,1,1,184967,1,2917,6,0,6,1,6,AdditionProc,List1,5 + 7 = 12,complex,1addition_060418_jma,62,1,"<?xml version=""1.0""?>\n<Clock xmlns:dt=""urn:schemas-microsoft-com:datatypes""><Description dt:dt=""string"">E-Prime Primary Realtime Clock</Description><StartTime><Timestamp dt:dt=""int"">0</Timestamp><DateUtc dt:dt=""string"">2011-07-09T23:33:13Z</DateUtc></StartTime><FrequencyChanges><FrequencyChange><Frequency dt:dt=""r8"">3192110000</Frequency><Timestamp dt:dt=""r8"">375573105760</Timestamp><Current dt:dt=""r8"">0</Current><DateUtc dt:dt=""string"">1969-12-31T18:46:40Z</DateUtc></FrequencyChange></FrequencyChanges></Clock>\n",74.998,1,-941023829,38952,0.56212963,7,2,1,2,190487,2,4444,7,3500,7,1,7,AdditionProc,List1,4 + 9 = 15,complex,1addition_060418_jma,62,1,"<?xml version=""1.0""?>\n<Clock xmlns:dt=""urn:schemas-microsoft-com:datatypes""><Description dt:dt=""string"">E-Prime Primary Realtime Clock</Description><StartTime><Timestamp dt:dt=""int"">0</Timestamp><DateUtc dt:dt=""string"">2011-07-09T23:33:13Z</DateUtc></StartTime><FrequencyChanges><FrequencyChange><Frequency dt:dt=""r8"">3192110000</Frequency><Timestamp dt:dt=""r8"">375573105760</Timestamp><Current dt:dt=""r8"">0</Current><DateUtc dt:dt=""string"">1969-12-31T18:46:40Z</DateUtc></FrequencyChange></FrequencyChanges></Clock>\n",74.998,1,-941023829,38952,0.56212963,8,2,0,2,199501,,0,8,0,8,1,8,AdditionProc,List1,3 + 8 = 9,complex,0addition_060418_jma,62,1,"<?xml version=""1.0""?>\n<Clock xmlns:dt=""urn:schemas-microsoft-com:datatypes""><Description dt:dt=""string"">E-Prime Primary Realtime Clock</Description><StartTime><Timestamp dt:dt=""int"">0</Timestamp><DateUtc dt:dt=""string"">2011-07-09T23:33:13Z</DateUtc></StartTime><FrequencyChanges><FrequencyChange><Frequency dt:dt=""r8"">3192110000</Frequency><Timestamp dt:dt=""r8"">375573105760</Timestamp><Current dt:dt=""r8"">0</Current><DateUtc dt:dt=""string"">1969-12-31T18:46:40Z</DateUtc></FrequencyChange></FrequencyChanges></Clock>\n",74.998,1,-941023829,38952,0.56212963,9,2,1,2,205021,2,3561,9,0,9,1,9,AdditionProc,List1,5 + 3 = 6,complex,1addition_060418_jma,62,1,"<?xml version=""1.0""?>\n<Clock xmlns:dt=""urn:schemas-microsoft-com:datatypes""><Description dt:dt=""string"">E-Prime Primary Realtime Clock</Description><StartTime><Timestamp dt:dt=""int"">0</Timestamp><DateUtc dt:dt=""string"">2011-07-09T23:33:13Z</DateUtc></StartTime><FrequencyChanges><FrequencyChange><Frequency dt:dt=""r8"">3192110000</Frequency><Timestamp dt:dt=""r8"">375573105760</Timestamp><Current dt:dt=""r8"">0</Current><DateUtc dt:dt=""string"">1969-12-31T18:46:40Z</DateUtc></FrequencyChange></FrequencyChanges></Clock>\n",74.998,1,-941023829,38952,0.56212963,10,2,1,2,210541,2,2614,10,2500,10,1,10,AdditionProc,List1,4 + 2 = 7,complex,1addition_060418_jma,62,1,"<?xml version=""1.0""?>\n<Clock xmlns:dt=""urn:schemas-microsoft-com:datatypes""><Description dt:dt=""string"">E-Prime Primary Realtime Clock</Description><StartTime><Timestamp dt:dt=""int"">0</Timestamp><DateUtc dt:dt=""string"">2011-07-09T23:33:13Z</DateUtc></StartTime><FrequencyChanges><FrequencyChange><Frequency dt:dt=""r8"">3192110000</Frequency><Timestamp dt:dt=""r8"">375573105760</Timestamp><Current dt:dt=""r8"">0</Current><DateUtc dt:dt=""string"">1969-12-31T18:46:40Z</DateUtc></FrequencyChange></FrequencyChanges></Clock>\n",74.998,1,-941023829,38952,0.56212963,11,1,1,1,218555,1,2522,11,2500,11,1,11,AdditionProc,List1,5 + 6 = 11,complex,1addition_060418_jma,62,1,"<?xml version=""1.0""?>\n<Clock xmlns:dt=""urn:schemas-microsoft-com:datatypes""><Description dt:dt=""string"">E-Prime Primary Realtime Clock</Description><StartTime><Timestamp dt:dt=""int"">0</Timestamp><DateUtc dt:dt=""string"">2011-07-09T23:33:13Z</DateUtc></StartTime><FrequencyChanges><FrequencyChange><Frequency dt:dt=""r8"">3192110000</Frequency><Timestamp dt:dt=""r8"">375573105760</Timestamp><Current dt:dt=""r8"">0</Current><DateUtc dt:dt=""string"">1969-12-31T18:46:40Z</DateUtc></FrequencyChange></FrequencyChanges></Clock>\n",74.998,1,-941023829,38952,0.56212963,12,1,1,1,226568,1,2310,12,0,12,1,12,AdditionProc,List1,1 + 2 = 3,simple,1addition_060418_jma,62,1,"<?xml version=""1.0""?>\n<Clock xmlns:dt=""urn:schemas-microsoft-com:datatypes""><Description dt:dt=""string"">E-Prime Primary Realtime Clock</Description><StartTime><Timestamp dt:dt=""int"">0</Timestamp><DateUtc dt:dt=""string"">2011-07-09T23:33:13Z</DateUtc></StartTime><FrequencyChanges><FrequencyChange><Frequency dt:dt=""r8"">3192110000</Frequency><Timestamp dt:dt=""r8"">375573105760</Timestamp><Current dt:dt=""r8"">0</Current><DateUtc dt:dt=""string"">1969-12-31T18:46:40Z</DateUtc></FrequencyChange></FrequencyChanges></Clock>\n",74.998,1,-941023829,38952,0.56212963,13,2,1,2,232088,2,3200,13,2500,13,1,13,AdditionProc,List1,1 + 4 = 3,simple,1addition_060418_jma,62,1,"<?xml version=""1.0""?>\n<Clock xmlns:dt=""urn:schemas-microsoft-com:datatypes""><Description dt:dt=""string"">E-Prime Primary Realtime Clock</Description><StartTime><Timestamp dt:dt=""int"">0</Timestamp><DateUtc dt:dt=""string"">2011-07-09T23:33:13Z</DateUtc></StartTime><FrequencyChanges><FrequencyChange><Frequency dt:dt=""r8"">3192110000</Frequency><Timestamp dt:dt=""r8"">375573105760</Timestamp><Current dt:dt=""r8"">0</Current><DateUtc dt:dt=""string"">1969-12-31T18:46:40Z</DateUtc></FrequencyChange></FrequencyChanges></Clock>\n",74.998,1,-941023829,38952,0.56212963,14,2,1,2,240102,2,3398,14,3500,14,1,14,AdditionProc,List1,6 + 5 = 9,complex,1addition_060418_jma,62,1,"<?xml version=""1.0""?>\n<Clock xmlns:dt=""urn:schemas-microsoft-com:datatypes""><Description dt:dt=""string"">E-Prime Primary Realtime Clock</Description><StartTime><Timestamp dt:dt=""int"">0</Timestamp><DateUtc dt:dt=""string"">2011-07-09T23:33:13Z</DateUtc></StartTime><FrequencyChanges><FrequencyChange><Frequency dt:dt=""r8"">3192110000</Frequency><Timestamp dt:dt=""r8"">375573105760</Timestamp><Current dt:dt=""r8"">0</Current><DateUtc dt:dt=""string"">1969-12-31T18:46:40Z</DateUtc></FrequencyChange></FrequencyChanges></Clock>\n",74.998,1,-941023829,38952,0.56212963,15,1,1,1,249116,1,2243,15,3500,15,1,15,AdditionProc,List1,1 + 9 = 10,simple,1addition_060418_jma,62,1,"<?xml version=""1.0""?>\n<Clock xmlns:dt=""urn:schemas-microsoft-com:datatypes""><Description dt:dt=""string"">E-Prime Primary Realtime Clock</Description><StartTime><Timestamp dt:dt=""int"">0</Timestamp><DateUtc dt:dt=""string"">2011-07-09T23:33:13Z</DateUtc></StartTime><FrequencyChanges><FrequencyChange><Frequency dt:dt=""r8"">3192110000</Frequency><Timestamp dt:dt=""r8"">375573105760</Timestamp><Current dt:dt=""r8"">0</Current><DateUtc dt:dt=""string"">1969-12-31T18:46:40Z</DateUtc></FrequencyChange></FrequencyChanges></Clock>\n",74.998,1,-941023829,38952,0.56212963,16,1,1,1,258129,1,1980,16,3500,16,1,16,AdditionProc,List1,7 + 1 = 8,simple,1addition_060418_jma,62,1,"<?xml version=""1.0""?>\n<Clock xmlns:dt=""urn:schemas-microsoft-com:datatypes""><Description dt:dt=""string"">E-Prime Primary Realtime Clock</Description><StartTime><Timestamp dt:dt=""int"">0</Timestamp><DateUtc dt:dt=""string"">2011-07-09T23:33:13Z</DateUtc></StartTime><FrequencyChanges><FrequencyChange><Frequency dt:dt=""r8"">3192110000</Frequency><Timestamp dt:dt=""r8"">375573105760</Timestamp><Current dt:dt=""r8"">0</Current><DateUtc dt:dt=""string"">1969-12-31T18:46:40Z</DateUtc></FrequencyChange></FrequencyChanges></Clock>\n",74.998,1,-941023829,38952,0.56212963,17,1,1,1,267143,1,2251,17,0,17,1,17,AdditionProc,List1,2 + 8 = 10,complex,1addition_060418_jma,62,1,"<?xml version=""1.0""?>\n<Clock xmlns:dt=""urn:schemas-microsoft-com:datatypes""><Description dt:dt=""string"">E-Prime Primary Realtime Clock</Description><StartTime><Timestamp dt:dt=""int"">0</Timestamp><DateUtc dt:dt=""string"">2011-07-09T23:33:13Z</DateUtc></StartTime><FrequencyChanges><FrequencyChange><Frequency dt:dt=""r8"">3192110000</Frequency><Timestamp dt:dt=""r8"">375573105760</Timestamp><Current dt:dt=""r8"">0</Current><DateUtc dt:dt=""string"">1969-12-31T18:46:40Z</DateUtc></FrequencyChange></FrequencyChanges></Clock>\n",74.998,1,-941023829,38952,0.56212963,18,2,1,2,272663,2,2641,18,3500,18,1,18,AdditionProc,List1,5 + 4 = 10,complex,1addition_060418_jma,62,1,"<?xml version=""1.0""?>\n<Clock xmlns:dt=""urn:schemas-microsoft-com:datatypes""><Description dt:dt=""string"">E-Prime Primary Realtime Clock</Description><StartTime><Timestamp dt:dt=""int"">0</Timestamp><DateUtc dt:dt=""string"">2011-07-09T23:33:13Z</DateUtc></StartTime><FrequencyChanges><FrequencyChange><Frequency dt:dt=""r8"">3192110000</Frequency><Timestamp dt:dt=""r8"">375573105760</Timestamp><Current dt:dt=""r8"">0</Current><DateUtc dt:dt=""string"">1969-12-31T18:46:40Z</DateUtc></FrequencyChange></FrequencyChanges></Clock>\n",74.998,1,-941023829,38952,0.56212963,19,2,1,2,281677,2,2288,19,2500,19,1,19,AdditionProc,List1,1 + 4 = 7,simple,1addition_060418_jma,62,1,"<?xml version=""1.0""?>\n<Clock xmlns:dt=""urn:schemas-microsoft-com:datatypes""><Description dt:dt=""string"">E-Prime Primary Realtime Clock</Description><StartTime><Timestamp dt:dt=""int"">0</Timestamp><DateUtc dt:dt=""string"">2011-07-09T23:33:13Z</DateUtc></StartTime><FrequencyChanges><FrequencyChange><Frequency dt:dt=""r8"">3192110000</Frequency><Timestamp dt:dt=""r8"">375573105760</Timestamp><Current dt:dt=""r8"">0</Current><DateUtc dt:dt=""string"">1969-12-31T18:46:40Z</DateUtc></FrequencyChange></FrequencyChanges></Clock>\n",74.998,1,-941023829,38952,0.56212963,20,1,1,1,289690,1,2313,20,0,20,1,20,AdditionProc,List1,6 + 3 = 9,complex,1addition_060418_jma,62,1,"<?xml version=""1.0""?>\n<Clock xmlns:dt=""urn:schemas-microsoft-com:datatypes""><Description dt:dt=""string"">E-Prime Primary Realtime Clock</Description><StartTime><Timestamp dt:dt=""int"">0</Timestamp><DateUtc dt:dt=""string"">2011-07-09T23:33:13Z</DateUtc></StartTime><FrequencyChanges><FrequencyChange><Frequency dt:dt=""r8"">3192110000</Frequency><Timestamp dt:dt=""r8"">375573105760</Timestamp><Current dt:dt=""r8"">0</Current><DateUtc dt:dt=""string"">1969-12-31T18:46:40Z</DateUtc></FrequencyChange></FrequencyChanges></Clock>\n",74.998,1,-941023829,38952,0.56212963,21,2,0,2,295211,,0,21,2500,21,1,21,AdditionProc,List1,1 + 9 = 9,simple,0addition_060418_jma,62,1,"<?xml version=""1.0""?>\n<Clock xmlns:dt=""urn:schemas-microsoft-com:datatypes""><Description dt:dt=""string"">E-Prime Primary Realtime Clock</Description><StartTime><Timestamp dt:dt=""int"">0</Timestamp><DateUtc dt:dt=""string"">2011-07-09T23:33:13Z</DateUtc></StartTime><FrequencyChanges><FrequencyChange><Frequency dt:dt=""r8"">3192110000</Frequency><Timestamp dt:dt=""r8"">375573105760</Timestamp><Current dt:dt=""r8"">0</Current><DateUtc dt:dt=""string"">1969-12-31T18:46:40Z</DateUtc></FrequencyChange></FrequencyChanges></Clock>\n",74.998,1,-941023829,38952,0.56212963,22,2,1,2,303224,2,2318,22,0,22,1,22,AdditionProc,List1,3 + 1 = 5,simple,1addition_060418_jma,62,1,"<?xml version=""1.0""?>\n<Clock xmlns:dt=""urn:schemas-microsoft-com:datatypes""><Description dt:dt=""string"">E-Prime Primary Realtime Clock</Description><StartTime><Timestamp dt:dt=""int"">0</Timestamp><DateUtc dt:dt=""string"">2011-07-09T23:33:13Z</DateUtc></StartTime><FrequencyChanges><FrequencyChange><Frequency dt:dt=""r8"">3192110000</Frequency><Timestamp dt:dt=""r8"">375573105760</Timestamp><Current dt:dt=""r8"">0</Current><DateUtc dt:dt=""string"">1969-12-31T18:46:40Z</DateUtc></FrequencyChange></FrequencyChanges></Clock>\n",74.998,1,-941023829,38952,0.56212963,23,2,0,2,308744,,0,23,0,23,1,23,AdditionProc,List1,6 + 1 = 8,simple,0addition_060418_jma,62,1,"<?xml version=""1.0""?>\n<Clock xmlns:dt=""urn:schemas-microsoft-com:datatypes""><Description dt:dt=""string"">E-Prime Primary Realtime Clock</Description><StartTime><Timestamp dt:dt=""int"">0</Timestamp><DateUtc dt:dt=""string"">2011-07-09T23:33:13Z</DateUtc></StartTime><FrequencyChanges><FrequencyChange><Frequency dt:dt=""r8"">3192110000</Frequency><Timestamp dt:dt=""r8"">375573105760</Timestamp><Current dt:dt=""r8"">0</Current><DateUtc dt:dt=""string"">1969-12-31T18:46:40Z</DateUtc></FrequencyChange></FrequencyChanges></Clock>\n",74.998,1,-941023829,38952,0.56212963,24,1,0,1,314264,2,2808,24,0,24,1,24,AdditionProc,List1,5 + 6 = 11,complex,0addition_060418_jma,62,1,"<?xml version=""1.0""?>\n<Clock xmlns:dt=""urn:schemas-microsoft-com:datatypes""><Description dt:dt=""string"">E-Prime Primary Realtime Clock</Description><StartTime><Timestamp dt:dt=""int"">0</Timestamp><DateUtc dt:dt=""string"">2011-07-09T23:33:13Z</DateUtc></StartTime><FrequencyChanges><FrequencyChange><Frequency dt:dt=""r8"">3192110000</Frequency><Timestamp dt:dt=""r8"">375573105760</Timestamp><Current dt:dt=""r8"">0</Current><DateUtc dt:dt=""string"">1969-12-31T18:46:40Z</DateUtc></FrequencyChange></FrequencyChanges></Clock>\n",74.998,1,-941023829,38952,0.56212963,25,2,1,2,319785,2,2813,25,2500,25,1,25,AdditionProc,List1,2 + 1 = 5,simple,1addition_060418_jma,62,1,"<?xml version=""1.0""?>\n<Clock xmlns:dt=""urn:schemas-microsoft-com:datatypes""><Description dt:dt=""string"">E-Prime Primary Realtime Clock</Description><StartTime><Timestamp dt:dt=""int"">0</Timestamp><DateUtc dt:dt=""string"">2011-07-09T23:33:13Z</DateUtc></StartTime><FrequencyChanges><FrequencyChange><Frequency dt:dt=""r8"">3192110000</Frequency><Timestamp dt:dt=""r8"">375573105760</Timestamp><Current dt:dt=""r8"">0</Current><DateUtc dt:dt=""string"">1969-12-31T18:46:40Z</DateUtc></FrequencyChange></FrequencyChanges></Clock>\n",74.998,1,-941023829,38952,0.56212963,26,2,1,2,327798,2,3560,26,3500,26,1,26,AdditionProc,List1,4 + 1 = 4,simple,1addition_060418_jma,62,1,"<?xml version=""1.0""?>\n<Clock xmlns:dt=""urn:schemas-microsoft-com:datatypes""><Description dt:dt=""string"">E-Prime Primary Realtime Clock</Description><StartTime><Timestamp dt:dt=""int"">0</Timestamp><DateUtc dt:dt=""string"">2011-07-09T23:33:13Z</DateUtc></StartTime><FrequencyChanges><FrequencyChange><Frequency dt:dt=""r8"">3192110000</Frequency><Timestamp dt:dt=""r8"">375573105760</Timestamp><Current dt:dt=""r8"">0</Current><DateUtc dt:dt=""string"">1969-12-31T18:46:40Z</DateUtc></FrequencyChange></FrequencyChanges></Clock>\n",74.998,1,-941023829,38952,0.56212963,27,2,1,2,336812,2,3544,27,2500,27,1,27,AdditionProc,List1,2 + 5 = 8,complex,1addition_060418_jma,62,1,"<?xml version=""1.0""?>\n<Clock xmlns:dt=""urn:schemas-microsoft-com:datatypes""><Description dt:dt=""string"">E-Prime Primary Realtime Clock</Description><StartTime><Timestamp dt:dt=""int"">0</Timestamp><DateUtc dt:dt=""string"">2011-07-09T23:33:13Z</DateUtc></StartTime><FrequencyChanges><FrequencyChange><Frequency dt:dt=""r8"">3192110000</Frequency><Timestamp dt:dt=""r8"">375573105760</Timestamp><Current dt:dt=""r8"">0</Current><DateUtc dt:dt=""string"">1969-12-31T18:46:40Z</DateUtc></FrequencyChange></FrequencyChanges></Clock>\n",74.998,1,-941023829,38952,0.56212963,28,1,1,1,344826,1,3545,28,0,28,1,28,AdditionProc,List1,5 + 7 = 12,complex,1addition_060418_jma,62,1,"<?xml version=""1.0""?>\n<Clock xmlns:dt=""urn:schemas-microsoft-com:datatypes""><Description dt:dt=""string"">E-Prime Primary Realtime Clock</Description><StartTime><Timestamp dt:dt=""int"">0</Timestamp><DateUtc dt:dt=""string"">2011-07-09T23:33:13Z</DateUtc></StartTime><FrequencyChanges><FrequencyChange><Frequency dt:dt=""r8"">3192110000</Frequency><Timestamp dt:dt=""r8"">375573105760</Timestamp><Current dt:dt=""r8"">0</Current><DateUtc dt:dt=""string"">1969-12-31T18:46:40Z</DateUtc></FrequencyChange></FrequencyChanges></Clock>\n",74.998,1,-941023829,38952,0.56212963,29,1,1,1,350346,1,3063,29,0,29,1,29,AdditionProc,List1,6 + 4 = 10,complex,1addition_060418_jma,62,1,"<?xml version=""1.0""?>\n<Clock xmlns:dt=""urn:schemas-microsoft-com:datatypes""><Description dt:dt=""string"">E-Prime Primary Realtime Clock</Description><StartTime><Timestamp dt:dt=""int"">0</Timestamp><DateUtc dt:dt=""string"">2011-07-09T23:33:13Z</DateUtc></StartTime><FrequencyChanges><FrequencyChange><Frequency dt:dt=""r8"">3192110000</Frequency><Timestamp dt:dt=""r8"">375573105760</Timestamp><Current dt:dt=""r8"">0</Current><DateUtc dt:dt=""string"">1969-12-31T18:46:40Z</DateUtc></FrequencyChange></FrequencyChanges></Clock>\n",74.998,1,-941023829,38952,0.56212963,30,1,1,1,355866,1,1862,30,2500,30,1,30,AdditionProc,List1,1 + 5 = 6,simple,1addition_060418_jma,62,1,"<?xml version=""1.0""?>\n<Clock xmlns:dt=""urn:schemas-microsoft-com:datatypes""><Description dt:dt=""string"">E-Prime Primary Realtime Clock</Description><StartTime><Timestamp dt:dt=""int"">0</Timestamp><DateUtc dt:dt=""string"">2011-07-09T23:33:13Z</DateUtc></StartTime><FrequencyChanges><FrequencyChange><Frequency dt:dt=""r8"">3192110000</Frequency><Timestamp dt:dt=""r8"">375573105760</Timestamp><Current dt:dt=""r8"">0</Current><DateUtc dt:dt=""string"">1969-12-31T18:46:40Z</DateUtc></FrequencyChange></FrequencyChanges></Clock>\n",74.998,1,-941023829,38952,0.56212963,31,1,1,1,363880,1,2575,31,0,31,1,31,AdditionProc,List1,2 + 1 = 3,simple,1addition_060418_jma,62,1,"<?xml version=""1.0""?>\n<Clock xmlns:dt=""urn:schemas-microsoft-com:datatypes""><Description dt:dt=""string"">E-Prime Primary Realtime Clock</Description><StartTime><Timestamp dt:dt=""int"">0</Timestamp><DateUtc dt:dt=""string"">2011-07-09T23:33:13Z</DateUtc></StartTime><FrequencyChanges><FrequencyChange><Frequency dt:dt=""r8"">3192110000</Frequency><Timestamp dt:dt=""r8"">375573105760</Timestamp><Current dt:dt=""r8"">0</Current><DateUtc dt:dt=""string"">1969-12-31T18:46:40Z</DateUtc></FrequencyChange></FrequencyChanges></Clock>\n",74.998,1,-941023829,38952,0.56212963,32,1,1,1,369400,1,2243,32,0,32,1,32,AdditionProc,List1,3 + 1 = 4,simple,1addition_060418_jma,62,1,"<?xml version=""1.0""?>\n<Clock xmlns:dt=""urn:schemas-microsoft-com:datatypes""><Description dt:dt=""string"">E-Prime Primary Realtime Clock</Description><StartTime><Timestamp dt:dt=""int"">0</Timestamp><DateUtc dt:dt=""string"">2011-07-09T23:33:13Z</DateUtc></StartTime><FrequencyChanges><FrequencyChange><Frequency dt:dt=""r8"">3192110000</Frequency><Timestamp dt:dt=""r8"">375573105760</Timestamp><Current dt:dt=""r8"">0</Current><DateUtc dt:dt=""string"">1969-12-31T18:46:40Z</DateUtc></FrequencyChange></FrequencyChanges></Clock>\n",74.998,1,-941023829,38952,0.56212963,33,2,1,2,374920,2,3274,33,2500,33,1,33,AdditionProc,List1,1 + 6 = 6,simple,1addition_060418_jma,62,1,"<?xml version=""1.0""?>\n<Clock xmlns:dt=""urn:schemas-microsoft-com:datatypes""><Description dt:dt=""string"">E-Prime Primary Realtime Clock</Description><StartTime><Timestamp dt:dt=""int"">0</Timestamp><DateUtc dt:dt=""string"">2011-07-09T23:33:13Z</DateUtc></StartTime><FrequencyChanges><FrequencyChange><Frequency dt:dt=""r8"">3192110000</Frequency><Timestamp dt:dt=""r8"">375573105760</Timestamp><Current dt:dt=""r8"">0</Current><DateUtc dt:dt=""string"">1969-12-31T18:46:40Z</DateUtc></FrequencyChange></FrequencyChanges></Clock>\n",74.998,1,-941023829,38952,0.56212963,34,1,1,1,382933,1,2279,34,3500,34,1,34,AdditionProc,List1,3 + 5 = 8,complex,1addition_060418_jma,62,1,"<?xml version=""1.0""?>\n<Clock xmlns:dt=""urn:schemas-microsoft-com:datatypes""><Description dt:dt=""string"">E-Prime Primary Realtime Clock</Description><StartTime><Timestamp dt:dt=""int"">0</Timestamp><DateUtc dt:dt=""string"">2011-07-09T23:33:13Z</DateUtc></StartTime><FrequencyChanges><FrequencyChange><Frequency dt:dt=""r8"">3192110000</Frequency><Timestamp dt:dt=""r8"">375573105760</Timestamp><Current dt:dt=""r8"">0</Current><DateUtc dt:dt=""string"">1969-12-31T18:46:40Z</DateUtc></FrequencyChange></FrequencyChanges></Clock>\n",74.998,1,-941023829,38952,0.56212963,35,2,1,2,391947,2,3174,35,3500,35,1,35,AdditionProc,List1,2 + 3 = 7,complex,1addition_060418_jma,62,1,"<?xml version=""1.0""?>\n<Clock xmlns:dt=""urn:schemas-microsoft-com:datatypes""><Description dt:dt=""string"">E-Prime Primary Realtime Clock</Description><StartTime><Timestamp dt:dt=""int"">0</Timestamp><DateUtc dt:dt=""string"">2011-07-09T23:33:13Z</DateUtc></StartTime><FrequencyChanges><FrequencyChange><Frequency dt:dt=""r8"">3192110000</Frequency><Timestamp dt:dt=""r8"">375573105760</Timestamp><Current dt:dt=""r8"">0</Current><DateUtc dt:dt=""string"">1969-12-31T18:46:40Z</DateUtc></FrequencyChange></FrequencyChanges></Clock>\n",74.998,1,-941023829,38952,0.56212963,36,1,0,1,400961,2,3425,36,2500,36,1,36,AdditionProc,List1,3 + 4 = 7,complex,0addition_060418_jma,62,1,"<?xml version=""1.0""?>\n<Clock xmlns:dt=""urn:schemas-microsoft-com:datatypes""><Description dt:dt=""string"">E-Prime Primary Realtime Clock</Description><StartTime><Timestamp dt:dt=""int"">0</Timestamp><DateUtc dt:dt=""string"">2011-07-09T23:33:13Z</DateUtc></StartTime><FrequencyChanges><FrequencyChange><Frequency dt:dt=""r8"">3192110000</Frequency><Timestamp dt:dt=""r8"">375573105760</Timestamp><Current dt:dt=""r8"">0</Current><DateUtc dt:dt=""string"">1969-12-31T18:46:40Z</DateUtc></FrequencyChange></FrequencyChanges></Clock>\n",74.998,1,-941023829,38952,0.56212963,37,2,1,2,408974,2,2699,37,0,37,1,37,AdditionProc,List1,1 + 2 = 2,simple,1addition_060418_jma,62,1,"<?xml version=""1.0""?>\n<Clock xmlns:dt=""urn:schemas-microsoft-com:datatypes""><Description dt:dt=""string"">E-Prime Primary Realtime Clock</Description><StartTime><Timestamp dt:dt=""int"">0</Timestamp><DateUtc dt:dt=""string"">2011-07-09T23:33:13Z</DateUtc></StartTime><FrequencyChanges><FrequencyChange><Frequency dt:dt=""r8"">3192110000</Frequency><Timestamp dt:dt=""r8"">375573105760</Timestamp><Current dt:dt=""r8"">0</Current><DateUtc dt:dt=""string"">1969-12-31T18:46:40Z</DateUtc></FrequencyChange></FrequencyChanges></Clock>\n",74.998,1,-941023829,38952,0.56212963,38,2,1,2,414495,2,4855,38,3500,38,1,38,AdditionProc,List1,1 + 2 = 2,simple,1addition_060418_jma,62,1,"<?xml version=""1.0""?>\n<Clock xmlns:dt=""urn:schemas-microsoft-com:datatypes""><Description dt:dt=""string"">E-Prime Primary Realtime Clock</Description><StartTime><Timestamp dt:dt=""int"">0</Timestamp><DateUtc dt:dt=""string"">2011-07-09T23:33:13Z</DateUtc></StartTime><FrequencyChanges><FrequencyChange><Frequency dt:dt=""r8"">3192110000</Frequency><Timestamp dt:dt=""r8"">375573105760</Timestamp><Current dt:dt=""r8"">0</Current><DateUtc dt:dt=""string"">1969-12-31T18:46:40Z</DateUtc></FrequencyChange></FrequencyChanges></Clock>\n",74.998,1,-941023829,38952,0.56212963,39,2,0,2,423508,,0,39,2500,39,1,39,AdditionProc,List1,7 + 2 = 11,complex,0addition_060418_jma,62,1,"<?xml version=""1.0""?>\n<Clock xmlns:dt=""urn:schemas-microsoft-com:datatypes""><Description dt:dt=""string"">E-Prime Primary Realtime Clock</Description><StartTime><Timestamp dt:dt=""int"">0</Timestamp><DateUtc dt:dt=""string"">2011-07-09T23:33:13Z</DateUtc></StartTime><FrequencyChanges><FrequencyChange><Frequency dt:dt=""r8"">3192110000</Frequency><Timestamp dt:dt=""r8"">375573105760</Timestamp><Current dt:dt=""r8"">0</Current><DateUtc dt:dt=""string"">1969-12-31T18:46:40Z</DateUtc></FrequencyChange></FrequencyChanges></Clock>\n",74.998,1,-941023829,38952,0.56212963,40,2,1,2,431522,2,3297,40,2500,40,1,40,AdditionProc,List1,6 + 2 = 10,complex,1addition_060418_jma,62,1,"<?xml version=""1.0""?>\n<Clock xmlns:dt=""urn:schemas-microsoft-com:datatypes""><Description dt:dt=""string"">E-Prime Primary Realtime Clock</Description><StartTime><Timestamp dt:dt=""int"">0</Timestamp><DateUtc dt:dt=""string"">2011-07-09T23:33:13Z</DateUtc></StartTime><FrequencyChanges><FrequencyChange><Frequency dt:dt=""r8"">3192110000</Frequency><Timestamp dt:dt=""r8"">375573105760</Timestamp><Current dt:dt=""r8"">0</Current><DateUtc dt:dt=""string"">1969-12-31T18:46:40Z</DateUtc></FrequencyChange></FrequencyChanges></Clock>\n",74.998,1,-941023829,38952,0.56212963,41,2,1,2,439535,2,3537,41,0,41,1,41,AdditionProc,List1,6 + 1 = 6,simple,1addition_060418_jma,62,1,"<?xml version=""1.0""?>\n<Clock xmlns:dt=""urn:schemas-microsoft-com:datatypes""><Description dt:dt=""string"">E-Prime Primary Realtime Clock</Description><StartTime><Timestamp dt:dt=""int"">0</Timestamp><DateUtc dt:dt=""string"">2011-07-09T23:33:13Z</DateUtc></StartTime><FrequencyChanges><FrequencyChange><Frequency dt:dt=""r8"">3192110000</Frequency><Timestamp dt:dt=""r8"">375573105760</Timestamp><Current dt:dt=""r8"">0</Current><DateUtc dt:dt=""string"">1969-12-31T18:46:40Z</DateUtc></FrequencyChange></FrequencyChanges></Clock>\n",74.998,1,-941023829,38952,0.56212963,42,1,1,1,445056,1,4039,42,3500,42,1,42,AdditionProc,List1,1 + 3 = 4,simple,1