user_id,ACC,RT,answer,finished,n1,n2,points,problem,problem_id,solution,trial,session,exp_id,row_num
2zbxhrq6oINRwEO97FQhBPb40m62,1,15.795,1,0,8,5,1,8 + 5 = 11,9,13,1,1476989019565,SP_verification,25
2zbxhrq6oINRwEO97FQhBPb40m62,1,12.177,0,0,7,5,2,7 + 5 = 12,7,12,2,1476989019565,SP_verification,26
2zbxhrq6oINRwEO97FQhBPb40m62,1,27.21,0,0,6,3,4,6 + 3 = 9,4,9,3,1476989019565,SP_verification,27
2zbxhrq6oINRwEO97FQhBPb40m62,1,27.08,1,0,9,6,5,9 + 6 = 13,11,15,4,1476989019565,SP_verification,28
2zbxhrq6oINRwEO97FQhBPb40m62,1,9.474,1,0,9,4,6,9 + 4 = 11,8,13,5,1476989019565,SP_verification,29
2zbxhrq6oINRwEO97FQhBPb40m62,1,10.549,0,0,5,2,7,5 + 2 = 7,2,7,6,1476989019565,SP_verification,30
2zbxhrq6oINRwEO97FQhBPb40m62,1,12.894,1,0,6,2,10,6 + 2 = 7,3,8,8,1476989019565,SP_verification,32
2zbxhrq6oINRwEO97FQhBPb40m62,1,13.685,1,0,5,4,11,5 + 4 = 11,5,9,9,1476989019565,SP_verification,33
2zbxhrq6oINRwEO97FQhBPb40m62,1,11.845,0,0,8,6,12,8 + 6 = 14,10,14,10,1476989019565,SP_verification,34
2zbxhrq6oINRwEO97FQhBPb40m62,1,6.438,0,0,4,2,13,4 + 2 = 6,1,6,11,1476989019565,SP_verification,35
2zbxhrq6oINRwEO97FQhBPb40m62,1,5.994,1,0,7,3,14,7 + 3 = 12,6,10,12,1476989019565,SP_verification,36
2zbxhrq6oINRwEO97FQhBPb40m62,1,10.527,1,0,5,2,18,5 + 2 = 5,2,7,15,1476989019565,SP_verification,39
2zbxhrq6oINRwEO97FQhBPb40m62,1,10.455,0,0,9,4,19,9 + 4 = 13,8,13,16,1476989019565,SP_verification,40
2zbxhrq6oINRwEO97FQhBPb40m62,1,6.792,1,0,7,3,20,7 + 3 = 11,6,10,17,1476989019565,SP_verification,41
2zbxhrq6oINRwEO97FQhBPb40m62,1,9.042,0,0,7,5,21,7 + 5 = 12,7,12,18,1476989019565,SP_verification,42
2zbxhrq6oINRwEO97FQhBPb40m62,1,14.177,0,0,8,6,22,8 + 6 = 14,10,14,19,1476989019565,SP_verification,43
2zbxhrq6oINRwEO97FQhBPb40m62,1,15.363,1,0,9,6,23,9 + 6 = 17,11,15,20,1476989019565,SP_verification,44
2zbxhrq6oINRwEO97FQhBPb40m62,1,7.693,0,0,6,2,26,6 + 2 = 8,3,8,23,1476989019565,SP_verification,47
2zbxhrq6oINRwEO97FQhBPb40m62,1,9.26,1,1,9,7,28,9 + 7 = 13,12,16,24,1476989019565,SP_verification,48
2zbxhrq6oINRwEO97FQhBPb40m62,0,3.698,no_answer,0,7,8,0,7 + 8 = ?,11,15,1,1476989494167,SP_production_timed,49
2zbxhrq6oINRwEO97FQhBPb40m62,0,5.134,no_answer,0,7,8,0,7 + 8 = ?,11,15,2,1476989494167,SP_production_timed,50
2zbxhrq6oINRwEO97FQhBPb40m62,0,6.269,no_answer,0,7,8,0,7 + 8 = ?,11,15,3,1476989494167,SP_production_timed,51
2zbxhrq6oINRwEO97FQhBPb40m62,0,6.951,no_answer,0,3,5,0,3 + 5 = ?,3,8,4,1476989494167,SP_production_timed,52
2zbxhrq6oINRwEO97FQhBPb40m62,1,5.218,8,0,3,5,1,3 + 5 = ?,3,8,5,1476989494167,SP_production_timed,53
2zbxhrq6oINRwEO97FQhBPb40m62,0,3.478,no_answer,0,4,8,0,4 + 8 = ?,8,12,6,1476989494167,SP_production_timed,54
2zbxhrq6oINRwEO97FQhBPb40m62,0,4.699,no_answer,0,4,8,0,4 + 8 = ?,8,12,7,1476989494167,SP_production_timed,55
2zbxhrq6oINRwEO97FQhBPb40m62,0,6.598,no_answer,0,4,8,0,4 + 8 = ?,8,12,8,1476989494167,SP_production_timed,56
2zbxhrq6oINRwEO97FQhBPb40m62,0,7.469,no_answer,0,6,7,0,6 + 7 = ?,9,13,9,1476989494167,SP_production_timed,57
2zbxhrq6oINRwEO97FQhBPb40m62,1,18.091,9,0,2,7,1,2 + 7 = ?,4,9,1,1476987660906,SP_production,0
2zbxhrq6oINRwEO97FQhBPb40m62,1,31.153,7,0,3,4,2,3 + 4 = ?,2,7,2,1476987660906,SP_production,1
2zbxhrq6oINRwEO97FQhBPb40m62,1,6.371,8,0,3,5,4,3 + 5 = ?,3,8,3,1476987660906,SP_production,2
2zbxhrq6oINRwEO97FQhBPb40m62,1,31.317,13,0,6,7,5,6 + 7 = ?,9,13,4,1476987660906,SP_production,3
2zbxhrq6oINRwEO97FQhBPb40m62,1,29.563,12,0,3,9,6,3 + 9 = ?,7,12,5,1476987660906,SP_production,4
2zbxhrq6oINRwEO97FQhBPb40m62,1,8.329,12,0,4,8,7,4 + 8 = ?,8,12,6,1476987660906,SP_production,5
2zbxhrq6oINRwEO97FQhBPb40m62,1,10.776,10,0,2,8,9,2 + 8 = ?,5,10,7,1476987660906,SP_production,6
2zbxhrq6oINRwEO97FQhBPb40m62,1,30.765,10,0,4,6,10,4 + 6 = ?,6,10,10,1476987660906,SP_production,9
2zbxhrq6oINRwEO97FQhBPb40m62,1,27.016,15,0,7,8,11,7 + 8 = ?,11,15,11,1476987660906,SP_production,10
2zbxhrq6oINRwEO97FQhBPb40m62,1,13.686,5,0,2,3,14,2 + 3 = ?,1,5,13,1476987660906,SP_production,12
2zbxhrq6oINRwEO97FQhBPb40m62,1,28.648,12,0,4,8,15,4 + 8 = ?,8,12,14,1476987660906,SP_production,13
2zbxhrq6oINRwEO97FQhBPb40m62,1,21.995,10,0,2,8,16,2 + 8 = ?,5,10,15,1476987660906,SP_production,14
2zbxhrq6oINRwEO97FQhBPb40m62,1,9.584,9,0,2,7,18,2 + 7 = ?,4,9,16,1476987660906,SP_production,15
2zbxhrq6oINRwEO97FQhBPb40m62,1,9.467,8,0,3,5,19,3 + 5 = ?,3,8,17,1476987660906,SP_production,16
2zbxhrq6oINRwEO97FQhBPb40m62,1,12.401,7,0,3,4,20,3 + 4 = ?,2,7,18,1476987660906,SP_production,17
2zbxhrq6oINRwEO97FQhBPb40m62,1,33.52,17,0,8,9,21,8 + 9 = ?,12,17,19,1476987660906,SP_production,18
2zbxhrq6oINRwEO97FQhBPb40m62,1,20.113,10,0,4,6,22,4 + 6 = ?,6,10,20,1476987660906,SP_production,19
2zbxhrq6oINRwEO97FQhBPb40m62,1,27.629,13,0,6,7,23,6 + 7 = ?,9,13,21,1476987660906,SP_production,20
2zbxhrq6oINRwEO97FQhBPb40m62,1,20.146,5,0,2,3,25,2 + 3 = ?,1,5,23,1476987660906,SP_production,22
2zbxhrq6oINRwEO97FQhBPb40m62,1,21.613,14,1,5,9,28,5 + 9 = ?,10,14,25,1476987660906,SP_production,24
2zbxhrq6oINRwEO97FQhBPb40m62,1,17.547,8,0,4,8,1,4 + ? = 12,8,12,1,1476988354397,SP_missing,62
2zbxhrq6oINRwEO97FQhBPb40m62,1,19.193,5,0,3,5,2,3 + ? = 8,3,8,2,1476988354397,SP_missing,63
2zbxhrq6oINRwEO97FQhBPb40m62,1,35.145,3,0,2,3,4,2 + ? = 5,1,5,3,1476988354397,SP_missing,64
2zbxhrq6oINRwEO97FQhBPb40m62,1,18.247,6,0,4,6,5,4 + ? = 10,6,10,4,1476988354397,SP_missing,65
2zbxhrq6oINRwEO97FQhBPb40m62,1,15.346,7,0,2,7,6,2 + ? = 9,4,9,5,1476988354397,SP_missing,66
2zbxhrq6oINRwEO97FQhBPb40m62,1,38.43,7,0,6,7,7,6 + ? = 13,9,13,6,1476988354397,SP_missing,67
2zbxhrq6oINRwEO97FQhBPb40m62,1,26.034,9,0,5,9,11,5 + ? = 14,10,14,9,1476988354397,SP_missing,70
2zbxhrq6oINRwEO97FQhBPb40m62,1,25.769,9,0,3,9,12,3 + ? = 12,7,12,10,1476988354397,SP_missing,71
2zbxhrq6oINRwEO97FQhBPb40m62,1,9.913,9,0,3,9,15,3 + ? = 12,7,12,13,1476988354397,SP_missing,74
2zbxhrq6oINRwEO97FQhBPb40m62,1,12.814,3,0,2,3,16,2 + ? = 5,1,5,14,1476988354397,SP_missing,75
2zbxhrq6oINRwEO97FQhBPb40m62,1,12.378,8,0,7,8,19,7 + ? = 15,11,15,16,1476988354397,SP_missing,77
2zbxhrq6oINRwEO97FQhBPb40m62,1,8.704,5,0,3,5,20,3 + ? = 8,3,8,17,1476988354397,SP_missing,78
2zbxhrq6oINRwEO97FQhBPb40m62,1,15.811,8,0,2,8,21,2 + ? = 10,5,10,18,1476988354397,SP_missing,79
2zbxhrq6oINRwEO97FQhBPb40m62,1,11.93,6,0,4,6,22,4 + ? = 10,6,10,19,1476988354397,SP_missing,80
2zbxhrq6oINRwEO97FQhBPb40m62,1,12.214,7,0,2,7,23,2 + ? = 9,4,9,20,1476988354397,SP_missing,81
2zbxhrq6oINRwEO97FQhBPb40m62,1,19.864,9,0,5,9,24,5 + ? = 14,10,14,21,1476988354397,SP_missing,82
2zbxhrq6oINRwEO97FQhBPb40m62,0,17.646,11,0,8,9,24,8 + ? = 17,12,17,23,1476988354397,SP_missing,84
2zbxhrq6oINRwEO97FQhBPb40m62,1,14.864,9,0,8,9,25,8 + ? = 17,12,17,24,1476988354397,SP_missing,85
2zbxhrq6oINRwEO97FQhBPb40m62,1,16.834,8,1,4,8,26,4 + ? = 12,8,12,25,1476988354397,SP_missing,86
j15QeTGRQhThgAiuF84rPtnlk8c2,1,2.171,1,0,9,4,4,9 + 4 = 14,8,13,3,1476989235023,SP_verification_timed,89
j15QeTGRQhThgAiuF84rPtnlk8c2,1,1.629,0,0,4,2,5,4 + 2 = 6,1,6,4,1476989235023,SP_verification_timed,90
j15QeTGRQhThgAiuF84rPtnlk8c2,1,1.746,0,0,5,2,6,5 + 2 = 7,2,7,5,1476989235023,SP_verification_timed,91
j15QeTGRQhThgAiuF84rPtnlk8c2,1,2.226,1,0,6,3,12,6 + 3 = 10,4,9,10,1476989235023,SP_verification_timed,96
j15QeTGRQhThgAiuF84rPtnlk8c2,0,1.471,1,0,8,6,13,8 + 6 = 14,10,14,15,1476989235023,SP_verification_timed,101
j15QeTGRQhThgAiuF84rPtnlk8c2,1,2.129,0,0,4,2,14,4 + 2 = 6,1,6,16,1476989235023,SP_verification_timed,102
j15QeTGRQhThgAiuF84rPtnlk8c2,1,1.036,1,0,5,4,14,5 + 4 = 8,5,9,17,1476989235023,SP_verification_timed,103
j15QeTGRQhThgAiuF84rPtnlk8c2,1,1.612,0,0,9,4,15,9 + 4 = 13,8,13,18,1476989235023,SP_verification_timed,104
j15QeTGRQhThgAiuF84rPtnlk8c2,1,1.81,1,0,7,3,16,7 + 3 = 12,6,10,19,1476989235023,SP_verification_timed,105
j15QeTGRQhThgAiuF84rPtnlk8c2,1,1.54,0,0,5,2,18,5 + 2 = 7,2,7,20,1476989235023,SP_verification_timed,106
j15QeTGRQhThgAiuF84rPtnlk8c2,1,2.544,1,0,6,2,19,6 + 2 = 9,3,8,21,1476989235023,SP_verification_timed,107
j15QeTGRQhThgAiuF84rPtnlk8c2,1,3.175,1,0,7,5,1,7 + 5 = 8,7,12,1,1476988461293,SP_verification,192
j15QeTGRQhThgAiuF84rPtnlk8c2,1,3.26,0,0,5,4,2,5 + 4 = 9,5,9,2,1476988461293,SP_verification,193
j15QeTGRQhThgAiuF84rPtnlk8c2,1,5.597,0,0,6,2,4,6 + 2 = 8,3,8,3,1476988461293,SP_verification,194
j15QeTGRQhThgAiuF84rPtnlk8c2,1,2.987,1,0,4,2,5,4 + 2 = 10,1,6,4,1476988461293,SP_verification,195
j15QeTGRQhThgAiuF84rPtnlk8c2,1,5.879,0,0,7,3,6,7 + 3 = 10,6,10,5,1476988461293,SP_verification,196
j15QeTGRQhThgAiuF84rPtnlk8c2,1,6.985,0,0,5,2,7,5 + 2 = 7,2,7,6,1476988461293,SP_verification,197
j15QeTGRQhThgAiuF84rPtnlk8c2,1,4.138,1,0,9,7,9,9 + 7 = 15,12,16,7,1476988461293,SP_verification,198
j15QeTGRQhThgAiuF84rPtnlk8c2,1,6.212,0,0,8,6,10,8 + 6 = 14,10,14,8,1476988461293,SP_verification,199
j15QeTGRQhThgAiuF84rPtnlk8c2,1,4.622,1,0,6,3,11,6 + 3 = 10,4,9,9,1476988461293,SP_verification,200
j15QeTGRQhThgAiuF84rPtnlk8c2,1,9.814,1,0,9,6,12,9 + 6 = 14,11,15,10,1476988461293,SP_verification,201
j15QeTGRQhThgAiuF84rPtnlk8c2,1,4.3,0,0,9,4,13,9 + 4 = 13,8,13,11,1476988461293,SP_verification,202
j15QeTGRQhThgAiuF84rPtnlk8c2,1,3.981,1,0,8,5,14,8 + 5 = 15,9,13,12,1476988461293,SP_verification,203
j15QeTGRQhThgAiuF84rPtnlk8c2,1,4.723,1,0,9,4,15,9 + 4 = 14,8,13,13,1476988461293,SP_verification,204
j15QeTGRQhThgAiuF84rPtnlk8c2,1,3.663,1,0,4,2,18,4 + 2 = 7,1,6,15,1476988461293,SP_verification,206
j15QeTGRQhThgAiuF84rPtnlk8c2,1,7.464,1,0,7,5,19,7 + 5 = 13,7,12,16,1476988461293,SP_verification,207
j15QeTGRQhThgAiuF84rPtnlk8c2,1,7.452,0,0,8,6,20,8 + 6 = 14,10,14,17,1476988461293,SP_verification,208
j15QeTGRQhThgAiuF84rPtnlk8c2,1,3.519,1,0,5,2,21,5 + 2 = 6,2,7,18,1476988461293,SP_verification,209
j15QeTGRQhThgAiuF84rPtnlk8c2,1,8.836,1,0,8,5,22,8 + 5 = 17,9,13,19,1476988461293,SP_verification,210
j15QeTGRQhThgAiuF84rPtnlk8c2,1,2.707,0,0,9,7,23,9 + 7 = 16,12,16,20,1476988461293,SP_verification,211
j15QeTGRQhThgAiuF84rPtnlk8c2,1,9.36,1,0,9,6,24,9 + 6 = 18,11,15,21,1476988461293,SP_verification,212
j15QeTGRQhThgAiuF84rPtnlk8c2,1,4.645,0,0,5,4,25,5 + 4 = 9,5,9,22,1476988461293,SP_verification,213
j15QeTGRQhThgAiuF84rPtnlk8c2,1,2.962,0,0,6,2,26,6 + 2 = 8,3,8,23,1476988461293,SP_verification,214
j15QeTGRQhThgAiuF84rPtnlk8c2,1,2.263,15,0,7,8,3,7 + 8 = ?,11,15,6,1476988696291,SP_production_timed,118
j15QeTGRQhThgAiuF84rPtnlk8c2,1,3.535,5,0,2,3,8,2 + 3 = ?,1,5,20,1476988696291,SP_production_timed,132
j15QeTGRQhThgAiuF84rPtnlk8c2,1,3.503,12,0,3,9,9,3 + 9 = ?,7,12,21,1476988696291,SP_production_timed,133
j15QeTGRQhThgAiuF84rPtnlk8c2,0,3.77,no_answer,0,3,4,9,3 + 4 = ?,2,7,25,1476988696291,SP_production_timed,137
j15QeTGRQhThgAiuF84rPtnlk8c2,1,3.083,7,0,3,4,10,3 + 4 = ?,2,7,26,1476988696291,SP_production_timed,138
j15QeTGRQhThgAiuF84rPtnlk8c2,0,3.703,no_answer,0,5,9,9,5 + 9 = ?,10,14,27,1476988696291,SP_production_timed,139
j15QeTGRQhThgAiuF84rPtnlk8c2,1,1.527,9,0,2,7,7,2 + 7 = ?,4,9,31,1476988696291,SP_production_timed,143
j15QeTGRQhThgAiuF84rPtnlk8c2,1,4.957,10,0,4,6,1,4 + 6 = ?,6,10,1,1476987718969,SP_production,168
j15QeTGRQhThgAiuF84rPtnlk8c2,1,4.51,12,0,4,8,2,4 + 8 = ?,8,12,2,1476987718969,SP_production,169
j15QeTGRQhThgAiuF84rPtnlk8c2,1,3.654,10,0,2,8,4,2 + 8 = ?,5,10,3,1476987718969,SP_production,170
j15QeTGRQhThgAiuF84rPtnlk8c2,1,5.787,14,0,5,9,5,5 + 9 = ?,10,14,4,1476987718969,SP_production,171
j15QeTGRQhThgAiuF84rPtnlk8c2,1,8.612,5,0,2,3,6,2 + 3 = ?,1,5,5,1476987718969,SP_production,172
j15QeTGRQhThgAiuF84rPtnlk8c2,1,9.003,15,0,7,8,7,7 + 8 = ?,11,15,6,1476987718969,SP_production,173
j15QeTGRQhThgAiuF84rPtnlk8c2,1,8.562,9,0,2,7,9,2 + 7 = ?,4,9,7,1476987718969,SP_production,174
j15QeTGRQhThgAiuF84rPtnlk8c2,1,9.374,7,0,3,4,11,3 + 4 = ?,2,7,9,1476987718969,SP_production,176
j15QeTGRQhThgAiuF84rPtnlk8c2,1,12.705,12,0,3,9,12,3 + 9 = ?,7,12,10,1476987718969,SP_production,177
j15QeTGRQhThgAiuF84rPtnlk8c2,1,5.96,8,0,3,5,14,3 + 5 = ?,3,8,12,1476987718969,SP_production,179
j15QeTGRQhThgAiuF84rPtnlk8c2,1,4.647,7,0,3,4,15,3 + 4 = ?,2,7,13,1476987718969,SP_production,180
j15QeTGRQhThgAiuF84rPtnlk8c2,1,5.996,12,0,3,9,16,3 + 9 = ?,7,12,14,1476987718969,SP_production,181
j15QeTGRQhThgAiuF84rPtnlk8c2,1,4.864,10,0,2,8,18,2 + 8 = ?,5,10,15,1476987718969,SP_production,182
j15QeTGRQhThgAiuF84rPtnlk8c2,1,12.062,8,0,3,5,19,3 + 5 = ?,3,8,16,1476987718969,SP_production,183
j15QeTGRQhThgAiuF84rPtnlk8c2,1,4.4,5,0,2,3,20,2 + 3 = ?,1,5,17,1476987718969,SP_production,184
j15QeTGRQhThgAiuF84rPtnlk8c2,1,6.913,12,0,4,8,21,4 + 8 = ?,8,12,18,1476987718969,SP_production,185
j15QeTGRQhThgAiuF84rPtnlk8c2,1,9.651,15,0,7,8,22,7 + 8 = ?,11,15,19,1476987718969,SP_production,186
j15QeTGRQhThgAiuF84rPtnlk8c2,1,6.329,9,0,2,7,23,2 + 7 = ?,4,9,20,1476987718969,SP_production,187
j15QeTGRQhThgAiuF84rPtnlk8c2,1,5.882,14,0,5,9,24,5 + 9 = ?,10,14,21,1476987718969,SP_production,188
j15QeTGRQhThgAiuF84rPtnlk8c2,1,11.555,16,0,9,7,1,9 + 7 = ?,12,16,1,1476989371485,VS_production,152
j15QeTGRQhThgAiuF84rPtnlk8c2,1,10.079,10,0,7,3,2,7 + 3 = ?,6,10,2,1476989371485,VS_production,153
j15QeTGRQhThgAiuF84rPtnlk8c2,1,7.192,6,0,4,2,4,4 + 2 = ?,1,6,3,1476989371485,VS_production,154
j15QeTGRQhThgAiuF84rPtnlk8c2,1,8.834,8,0,6,2,6,6 + 2 = ?,3,8,5,1476989371485,VS_production,156
j15QeTGRQhThgAiuF84rPtnlk8c2,1,9.105,9,0,5,4,7,5 + 4 = ?,5,9,6,1476989371485,VS_production,157
j15QeTGRQhThgAiuF84rPtnlk8c2,1,9.805,15,0,9,6,10,9 + 6 = ?,11,15,8,1476989371485,VS_production,159
j15QeTGRQhThgAiuF84rPtnlk8c2,1,7.771,9,0,6,3,11,6 + 3 = ?,4,9,9,1476989371485,VS_production,160
j15QeTGRQhThgAiuF84rPtnlk8c2,1,5.151,7,0,5,2,12,5 + 2 = ?,2,7,10,1476989371485,VS_production,161
j15QeTGRQhThgAiuF84rPtnlk8c2,1,9.208,14,0,8,6,16,8 + 6 = ?,10,14,13,1476989371485,VS_production,164
j15QeTGRQhThgAiuF84rPtnlk8c2,1,7.997,9,0,6,3,17,6 + 3 = ?,4,9,14,1476989371485,VS_production,165
j15QeTGRQhThgAiuF84rPtnlk8c2,0,3.653,5,0,2,7,0,2 + ? = 9,4,9,1,1476988923515,SP_missing_timed,216
j15QeTGRQhThgAiuF84rPtnlk8c2,0,3.55,no_answer,0,5,9,0,5 + ? = 14,10,14,4,1476988923515,SP_missing_timed,219
j15QeTGRQhThgAiuF84rPtnlk8c2,1,3.835,9,0,5,9,1,5 + ? = 14,10,14,6,1476988923515,SP_missing_timed,221
j15QeTGRQhThgAiuF84rPtnlk8c2,1,3.717,3,0,2,3,2,2 + ? = 5,1,5,7,1476988923515,SP_missing_timed,222
j15QeTGRQhThgAiuF84rPtnlk8c2,0,3.885,no_answer,0,8,9,1,8 + ? = 17,12,17,8,1476988923515,SP_missing_timed,223
j15QeTGRQhThgAiuF84rPtnlk8c2,0,3.535,no_answer,0,7,8,0,7 + ? = 15,11,15,12,1476988923515,SP_missing_timed,227
j15QeTGRQhThgAiuF84rPtnlk8c2,1,3.518,5,0,3,5,2,3 + ? = 8,3,8,14,1476988923515,SP_missing_timed,229
j15QeTGRQhThgAiuF84rPtnlk8c2,1,3.502,6,0,4,6,3,4 + ? = 10,6,10,15,1476988923515,SP_missing_timed,230
j15QeTGRQhThgAiuF84rPtnlk8c2,0,3.552,no_answer,0,4,8,2,4 + ? = 12,8,12,16,1476988923515,SP_missing_timed,231
j15QeTGRQhThgAiuF84rPtnlk8c2,0,3.984,no_answer,0,6,7,2,6 + ? = 13,9,13,18,1476988923515,SP_missing_timed,233
j15QeTGRQhThgAiuF84rPtnlk8c2,1,2.184,9,0,3,9,1,3 + ? = 12,7,12,23,1476988923515,SP_missing_timed,238
j15QeTGRQhThgAiuF84rPtnlk8c2,0,3.536,no_answer,0,3,4,0,3 + ? = 7,2,7,24,1476988923515,SP_missing_timed,239
j15QeTGRQhThgAiuF84rPtnlk8c2,1,2.348,4,0,3,4,1,3 + ? = 7,2,7,26,1476988923515,SP_missing_timed,241
j15QeTGRQhThgAiuF84rPtnlk8c2,0,3.468,no_answer,0,5,9,1,5 + ? = 14,10,14,28,1476988923515,SP_missing_timed,243
j15QeTGRQhThgAiuF84rPtnlk8c2,1,1.792,9,0,5,9,1,5 + ? = 14,10,14,30,1476988923515,SP_missing_timed,245
j15QeTGRQhThgAiuF84rPtnlk8c2,1,2.95,3,0,2,3,2,2 + ? = 5,1,5,31,1476988923515,SP_missing_timed,246
j15QeTGRQhThgAiuF84rPtnlk8c2,1,2.911,6,0,4,6,2,4 + ? = 10,6,10,33,1476988923515,SP_missing_timed,248
j15QeTGRQhThgAiuF84rPtnlk8c2,1,3.145,8,0,4,8,4,4 + ? = 12,8,12,35,1476988923515,SP_missing_timed,250
j15QeTGRQhThgAiuF84rPtnlk8c2,0,3.552,no_answer,0,6,7,2,6 + ? = 13,9,13,39,1476988923515,SP_missing_timed,254
j15QeTGRQhThgAiuF84rPtnlk8c2,0,3.752,no_answer,0,2,7,3,2 + ? = 9,4,9,44,1476988923515,SP_missing_timed,259
j15QeTGRQhThgAiuF84rPtnlk8c2,1,1.491,7,0,2,7,4,2 + ? = 9,4,9,45,1476988923515,SP_missing_timed,260
j15QeTGRQhThgAiuF84rPtnlk8c2,0,3.553,no_answer,0,8,9,3,8 + ? = 17,12,17,46,1476988923515,SP_missing_timed,261
j15QeTGRQhThgAiuF84rPtnlk8c2,1,1.223,7,0,6,7,1,6 + ? = 13,9,13,52,1476988923515,SP_missing_timed,267
j15QeTGRQhThgAiuF84rPtnlk8c2,1,7.994,7,0,6,7,1,6 + ? = 13,9,13,1,1476988018447,SP_missing,270
j15QeTGRQhThgAiuF84rPtnlk8c2,1,10.177,9,0,3,9,2,3 + ? = 12,7,12,2,1476988018447,SP_missing,271
j15QeTGRQhThgAiuF84rPtnlk8c2,1,4.284,8,0,2,8,4,2 + ? = 10,5,10,3,1476988018447,SP_missing,272
j15QeTGRQhThgAiuF84rPtnlk8c2,1,5.881,4,0,3,4,5,3 + ? = 7,2,7,4,1476988018447,SP_missing,273
j15QeTGRQhThgAiuF84rPtnlk8c2,1,13.459,8,0,7,8,6,7 + ? = 15,11,15,5,1476988018447,SP_missing,274
j15QeTGRQhThgAiuF84rPtnlk8c2,1,10.08,7,0,2,7,7,2 + ? = 9,4,9,6,1476988018447,SP_missing,275
j15QeTGRQhThgAiuF84rPtnlk8c2,0,8.13,6,0,5,9,5,5 + ? = 14,10,14,8,1476988018447,SP_missing,277
j15QeTGRQhThgAiuF84rPtnlk8c2,0,4.954,7,0,5,9,4,5 + ? = 14,10,14,9,1476988018447,SP_missing,278
j15QeTGRQhThgAiuF84rPtnlk8c2,1,11.178,8,0,4,8,5,4 + ? = 12,8,12,10,1476988018447,SP_missing,279
j15QeTGRQhThgAiuF84rPtnlk8c2,1,26.104,9,0,8,9,6,8 + ? = 17,12,17,11,1476988018447,SP_missing,280
j15QeTGRQhThgAiuF84rPtnlk8c2,0,10.377,8,0,3,5,5,3 + ? = 8,3,8,12,1476988018447,SP_missing,281
j15QeTGRQhThgAiuF84rPtnlk8c2,1,7.313,5,0,3,5,6,3 + ? = 8,3,8,13,1476988018447,SP_missing,282
j15QeTGRQhThgAiuF84rPtnlk8c2,1,5.43,6,0,4,6,7,4 + ? = 10,6,10,14,1476988018447,SP_missing,283
j15QeTGRQhThgAiuF84rPtnlk8c2,1,5.258,3,0,2,3,8,2 + ? = 5,1,5,15,1476988018447,SP_missing,284
j15QeTGRQhThgAiuF84rPtnlk8c2,1,4.996,6,0,4,6,10,4 + ? = 10,6,10,16,1476988018447,SP_missing,285
j15QeTGRQhThgAiuF84rPtnlk8c2,1,10.223,9,0,8,9,12,8 + ? = 17,12,17,18,1476988018447,SP_missing,287
j15QeTGRQhThgAiuF84rPtnlk8c2,1,17.661,4,0,3,4,13,3 + ? = 7,2,7,19,1476988018447,SP_missing,288
j15QeTGRQhThgAiuF84rPtnlk8c2,1,5.994,3,0,2,3,16,2 + ? = 5,1,5,21,1476988018447,SP_missing,290
j15QeTGRQhThgAiuF84rPtnlk8c2,1,9.319,8,0,7,8,18,7 + ? = 15,11,15,23,1476988018447,SP_missing,292
j15QeTGRQhThgAiuF84rPtnlk8c2,1,4.746,8,0,2,8,19,2 + ? = 10,5,10,24,1476988018447,SP_missing,293
j15QeTGRQhThgAiuF84rPtnlk8c2,1,7.843,9,0,5,9,21,5 + ? = 14,10,14,26,1476988018447,SP_missing,295
j15QeTGRQhThgAiuF84rPtnlk8c2,1,11.383,5,0,3,5,22,3 + ? = 8,3,8,27,1476988018447,SP_missing,296
j15QeTGRQhThgAiuF84rPtnlk8c2,1,6.696,9,1,5,9,24,5 + ? = 14,10,14,28,1476988018447,SP_missing,297
x4HDej79ZyfzizeuCoUtMXhJVL12,1,2.003,0,1,5,4,27,5 + 4 = 9,5,9,25,1476988291649,SP_verification_timed,322
x4HDej79ZyfzizeuCoUtMXhJVL12,0,2.03,1,0,5,4,0,5 + 4 = 9,5,9,1,1476987928578,SP_verification,426
x4HDej79ZyfzizeuCoUtMXhJVL12,0,3.234,1,0,7,3,0,7 + 3 = 10,6,10,2,1476987928578,SP_verification,427
x4HDej79ZyfzizeuCoUtMXhJVL12,0,1.262,0,0,9,4,0,9 + 4 = 11,8,13,3,1476987928578,SP_verification,428
x4HDej79ZyfzizeuCoUtMXhJVL12,1,2.451,1,0,4,2,3,4 + 2 = 9,1,6,6,1476987928578,SP_verification,431
x4HDej79ZyfzizeuCoUtMXhJVL12,1,2.2,0,0,9,6,7,9 + 6 = 15,11,15,9,1476987928578,SP_verification,434
x4HDej79ZyfzizeuCoUtMXhJVL12,1,1.519,1,0,6,2,8,6 + 2 = 9,3,8,10,1476987928578,SP_verification,435
x4HDej79ZyfzizeuCoUtMXhJVL12,1,1.649,0,0,8,5,16,8 + 5 = 13,9,13,17,1476987928578,SP_verification,442
x4HDej79ZyfzizeuCoUtMXhJVL12,1,1.685,0,0,6,2,17,6 + 2 = 8,3,8,18,1476987928578,SP_verification,443
x4HDej79ZyfzizeuCoUtMXhJVL12,1,1.396,1,0,7,3,19,7 + 3 = 9,6,10,19,1476987928578,SP_verification,444
x4HDej79ZyfzizeuCoUtMXhJVL12,1,1.334,0,0,5,4,20,5 + 4 = 9,5,9,20,1476987928578,SP_verification,445
x4HDej79ZyfzizeuCoUtMXhJVL12,1,1.438,0,0,6,3,22,6 + 3 = 9,4,9,22,1476987928578,SP_verification,447
x4HDej79ZyfzizeuCoUtMXhJVL12,1,1.894,1,0,8,6,23,8 + 6 = 9,10,14,23,1476987928578,SP_verification,448
x4HDej79ZyfzizeuCoUtMXhJVL12,1,1.445,1,1,9,4,27,9 + 4 = 12,8,13,27,1476987928578,SP_verification,452
x4HDej79ZyfzizeuCoUtMXhJVL12,1,6.713,0,0,2,7,1,2 + 7 = 9,4,9,1,1476988959585,VS_verification,483
x4HDej79ZyfzizeuCoUtMXhJVL12,1,2.549,1,0,3,9,2,3 + 9 = 13,7,12,2,1476988959585,VS_verification,484
x4HDej79ZyfzizeuCoUtMXhJVL12,1,6.926,0,0,3,5,4,3 + 5 = 8,3,8,3,1476988959585,VS_verification,485
x4HDej79ZyfzizeuCoUtMXhJVL12,1,3.58,0,0,3,4,5,3 + 4 = 7,2,7,4,1476988959585,VS_verification,486
x4HDej79ZyfzizeuCoUtMXhJVL12,1,6.21,1,0,2,3,6,2 + 3 = 7,1,5,5,1476988959585,VS_verification,487
x4HDej79ZyfzizeuCoUtMXhJVL12,1,8.648,1,0,7,8,7,7 + 8 = 17,11,15,6,1476988959585,VS_verification,488
x4HDej79ZyfzizeuCoUtMXhJVL12,1,0.872,0,0,4,8,7,4 + 8 = 12,8,12,8,1476988959585,VS_verification,490
x4HDej79ZyfzizeuCoUtMXhJVL12,1,6.978,0,0,8,9,9,8 + 9 = 17,12,17,10,1476988959585,VS_verification,492
x4HDej79ZyfzizeuCoUtMXhJVL12,1,3.989,0,0,4,6,11,4 + 6 = 10,6,10,11,1476988959585,VS_verification,493
x4HDej79ZyfzizeuCoUtMXhJVL12,1,2.542,1,0,7,8,11,7 + 8 = 14,11,15,13,1476988959585,VS_verification,495
x4HDej79ZyfzizeuCoUtMXhJVL12,1,1.916,0,0,2,7,11,2 + 7 = 9,4,9,15,1476988959585,VS_verification,497
x4HDej79ZyfzizeuCoUtMXhJVL12,1,3.485,1,0,3,4,12,3 + 4 = 8,2,7,16,1476988959585,VS_verification,498
x4HDej79ZyfzizeuCoUtMXhJVL12,1,2.884,0,0,2,3,15,2 + 3 = 5,1,5,18,1476988959585,VS_verification,500
x4HDej79ZyfzizeuCoUtMXhJVL12,0,6.827,0,0,6,7,14,6 + 7 = 12,9,13,19,1476988959585,VS_verification,501
x4HDej79ZyfzizeuCoUtMXhJVL12,0,5.561,1,0,3,5,14,3 + 5 = 8,3,8,21,1476988959585,VS_verification,503
x4HDej79ZyfzizeuCoUtMXhJVL12,0,6.144,1,0,6,7,16,6 + 7 = 13,9,13,25,1476988959585,VS_verification,507
x4HDej79ZyfzizeuCoUtMXhJVL12,1,6.029,0,0,4,6,18,4 + 6 = 10,6,10,27,1476988959585,VS_verification,509
x4HDej79ZyfzizeuCoUtMXhJVL12,1,6.055,0,0,6,7,19,6 + 7 = 13,9,13,28,1476988959585,VS_verification,510
x4HDej79ZyfzizeuCoUtMXhJVL12,1,4.892,1,0,3,5,21,3 + 5 = 9,3,8,29,1476988959585,VS_verification,511
x4HDej79ZyfzizeuCoUtMXhJVL12,1,1.697,5,1,2,3,26,2 + 3 = ?,1,5,26,1476988053368,SP_production_timed,374
x4HDej79ZyfzizeuCoUtMXhJVL12,1,3.05,10,0,2,8,1,2 + 8 = ?,5,10,1,1476987653553,SP_production,400
x4HDej79ZyfzizeuCoUtMXhJVL12,1,2.429,17,0,8,9,7,8 + 9 = ?,12,17,6,1476987653553,SP_production,405
x4HDej79ZyfzizeuCoUtMXhJVL12,1,3.253,8,0,6,2,13,6 + 2 = ?,3,8,11,1476988396868,VS_production,385
x4HDej79ZyfzizeuCoUtMXhJVL12,1,3.003,9,0,5,4,15,5 + 4 = ?,5,9,12,1476988396868,VS_production,386
x4HDej79ZyfzizeuCoUtMXhJVL12,0,3.91,10,0,5,2,14,5 + 2 = ?,2,7,13,1476988396868,VS_production,387
x4HDej79ZyfzizeuCoUtMXhJVL12,1,3.491,13,0,8,5,24,8 + 5 = ?,9,13,21,1476988396868,VS_production,395
x4HDej79ZyfzizeuCoUtMXhJVL12,1,4.038,14,0,8,6,25,8 + 6 = ?,10,14,22,1476988396868,VS_production,396
x4HDej79ZyfzizeuCoUtMXhJVL12,1,2.062,8,0,2,8,5,2 + ? = 10,5,10,5,1476988165356,SP_missing_timed,457
x4HDej79ZyfzizeuCoUtMXhJVL12,1,1.946,8,0,7,8,6,7 + ? = 15,11,15,6,1476988165356,SP_missing_timed,458
x4HDej79ZyfzizeuCoUtMXhJVL12,1,1.802,5,0,3,5,8,3 + ? = 8,3,8,8,1476988165356,SP_missing_timed,460
x4HDej79ZyfzizeuCoUtMXhJVL12,1,2.248,6,0,4,6,10,4 + ? = 10,6,10,9,1476988165356,SP_missing_timed,461
x4HDej79ZyfzizeuCoUtMXhJVL12,1,1.766,9,0,5,9,11,5 + ? = 14,10,14,10,1476988165356,SP_missing_timed,462
x4HDej79ZyfzizeuCoUtMXhJVL12,1,2.129,7,0,2,7,12,2 + ? = 9,4,9,13,1476988165356,SP_missing_timed,465
x4HDej79ZyfzizeuCoUtMXhJVL12,1,2.078,8,0,4,8,12,4 + ? = 12,8,12,19,1476988165356,SP_missing_timed,471
x4HDej79ZyfzizeuCoUtMXhJVL12,1,2.212,8,0,4,8,2,4 + ? = 12,8,12,2,1476987787736,SP_missing,514
x4HDej79ZyfzizeuCoUtMXhJVL12,1,3.165,3,0,2,3,4,2 + ? = 5,1,5,3,1476987787736,SP_missing,515
x4HDej79ZyfzizeuCoUtMXhJVL12,1,2.262,5,0,3,5,5,3 + ? = 8,3,8,4,1476987787736,SP_missing,516
x4HDej79ZyfzizeuCoUtMXhJVL12,1,2.346,9,0,5,9,6,5 + ? = 14,10,14,5,1476987787736,SP_missing,517
x4HDej79ZyfzizeuCoUtMXhJVL12,1,2.844,8,0,2,8,7,2 + ? = 10,5,10,6,1476987787736,SP_missing,518
x4HDej79ZyfzizeuCoUtMXhJVL12,1,3.646,4,0,3,4,9,3 + ? = 7,2,7,7,1476987787736,SP_missing,519
x4HDej79ZyfzizeuCoUtMXhJVL12,1,2.505,6,0,4,6,10,4 + ? = 10,6,10,8,1476987787736,SP_missing,520
x4HDej79ZyfzizeuCoUtMXhJVL12,1,3.553,8,0,7,8,11,7 + ? = 15,11,15,9,1476987787736,SP_missing,521
x4HDej79ZyfzizeuCoUtMXhJVL12,1,2.869,7,0,2,7,12,2 + ? = 9,4,9,10,1476987787736,SP_missing,522
x4HDej79ZyfzizeuCoUtMXhJVL12,1,2.764,9,0,8,9,13,8 + ? = 17,12,17,11,1476987787736,SP_missing,523
mEmB9UeHJAVxGpymd3wPBH47Mxn1,0,10.206,1,0,9,4,0,9 + ? = 13,8,13,1,1476988823038,VS_missing,566
mEmB9UeHJAVxGpymd3wPBH47Mxn1,1,5.06,4,0,9,4,0,9 + ? = 13,8,13,2,1476988823038,VS_missing,567
mEmB9UeHJAVxGpymd3wPBH47Mxn1,0,6.318,7,0,8,6,1,8 + ? = 14,10,14,3,1476988823038,VS_missing,568
mEmB9UeHJAVxGpymd3wPBH47Mxn1,1,9.538,6,0,8,6,0,8 + ? = 14,10,14,4,1476988823038,VS_missing,569
mEmB9UeHJAVxGpymd3wPBH47Mxn1,1,3.456,3,0,7,3,1,7 + ? = 10,6,10,5,1476988823038,VS_missing,570
mEmB9UeHJAVxGpymd3wPBH47Mxn1,1,8.32,2,0,6,2,2,6 + ? = 8,3,8,6,1476988823038,VS_missing,571
mEmB9UeHJAVxGpymd3wPBH47Mxn1,1,8.352,5,0,7,5,3,7 + ? = 12,7,12,7,1476988823038,VS_missing,572
mEmB9UeHJAVxGpymd3wPBH47Mxn1,1,9.952,7,0,9,7,5,9 + ? = 16,12,16,8,1476988823038,VS_missing,573
mEmB9UeHJAVxGpymd3wPBH47Mxn1,1,3.264,2,0,4,2,6,4 + ? = 6,1,6,9,1476988823038,VS_missing,574
mEmB9UeHJAVxGpymd3wPBH47Mxn1,1,3.876,3,0,6,3,7,6 + ? = 9,4,9,10,1476988823038,VS_missing,575
mEmB9UeHJAVxGpymd3wPBH47Mxn1,1,7.65,2,0,5,2,8,5 + ? = 7,2,7,11,1476988823038,VS_missing,576
mEmB9UeHJAVxGpymd3wPBH47Mxn1,1,4.212,4,0,5,4,10,5 + ? = 9,5,9,12,1476988823038,VS_missing,577
mEmB9UeHJAVxGpymd3wPBH47Mxn1,1,5.456,6,0,9,6,12,9 + ? = 15,11,15,14,1476988823038,VS_missing,579
mEmB9UeHJAVxGpymd3wPBH47Mxn1,1,4.428,4,0,9,4,13,9 + ? = 13,8,13,15,1476988823038,VS_missing,580
mEmB9UeHJAVxGpymd3wPBH47Mxn1,1,8.344,5,0,7,5,14,7 + ? = 12,7,12,16,1476988823038,VS_missing,581
mEmB9UeHJAVxGpymd3wPBH47Mxn1,1,9.422,7,0,9,7,15,9 + ? = 16,12,16,18,1476988823038,VS_missing,583
mEmB9UeHJAVxGpymd3wPBH47Mxn1,1,3.975,2,0,6,2,17,6 + ? = 8,3,8,20,1476988823038,VS_missing,585
mEmB9UeHJAVxGpymd3wPBH47Mxn1,1,6.784,2,0,5,2,20,5 + ? = 7,2,7,22,1476988823038,VS_missing,587
mEmB9UeHJAVxGpymd3wPBH47Mxn1,1,5.91,2,0,4,2,21,4 + ? = 6,1,6,23,1476988823038,VS_missing,588
mEmB9UeHJAVxGpymd3wPBH47Mxn1,1,3.52,3,1,6,3,26,6 + ? = 9,4,9,27,1476988823038,VS_missing,592
mEmB9UeHJAVxGpymd3wPBH47Mxn1,1,1.875,1,0,7,3,1,7 + 3 = 9,6,10,1,1476988376462,SP_verification_timed,537
mEmB9UeHJAVxGpymd3wPBH47Mxn1,1,1.634,0,0,6,2,2,6 + 2 = 8,3,8,2,1476988376462,SP_verification_timed,538
mEmB9UeHJAVxGpymd3wPBH47Mxn1,1,1.296,0,0,5,2,6,5 + 2 = 7,2,7,5,1476988376462,SP_verification_timed,541
mEmB9UeHJAVxGpymd3wPBH47Mxn1,1,1.617,0,0,4,2,7,4 + 2 = 6,1,6,6,1476988376462,SP_verification_timed,542
mEmB9UeHJAVxGpymd3wPBH47Mxn1,1,1.587,1,0,6,3,9,6 + 3 = 5,4,9,7,1476988376462,SP_verification_timed,543
mEmB9UeHJAVxGpymd3wPBH47Mxn1,1,1.972,0,0,5,4,11,5 + 4 = 9,5,9,9,1476988376462,SP_verification_timed,545
mEmB9UeHJAVxGpymd3wPBH47Mxn1,0,1.703,1,0,6,3,13,6 + 3 = 9,4,9,13,1476988376462,SP_verification_timed,549
mEmB9UeHJAVxGpymd3wPBH47Mxn1,0,0.472,0,0,9,4,12,9 + 4 = 15,8,13,14,1476988376462,SP_verification_timed,550
mEmB9UeHJAVxGpymd3wPBH47Mxn1,1,1.568,0,0,4,2,12,4 + 2 = 6,1,6,17,1476988376462,SP_verification_timed,553
mEmB9UeHJAVxGpymd3wPBH47Mxn1,1,2.023,0,0,5,2,16,5 + 2 = 7,2,7,20,1476988376462,SP_verification_timed,556
mEmB9UeHJAVxGpymd3wPBH47Mxn1,0,1.729,0,0,9,6,15,9 + 6 = 14,11,15,21,1476988376462,SP_verification_timed,557
mEmB9UeHJAVxGpymd3wPBH47Mxn1,1,1.564,0,0,6,2,17,6 + 2 = 8,3,8,23,1476988376462,SP_verification_timed,559
mEmB9UeHJAVxGpymd3wPBH47Mxn1,1,1.373,0,0,6,3,18,6 + 3 = 9,4,9,24,1476988376462,SP_verification_timed,560
mEmB9UeHJAVxGpymd3wPBH47Mxn1,0,0.718,0,0,8,5,18,8 + 5 = 15,9,13,26,1476988376462,SP_verification_timed,562
mEmB9UeHJAVxGpymd3wPBH47Mxn1,1,3.294,1,0,5,2,1,5 + 2 = 3,2,7,1,1476987923776,SP_verification,672
mEmB9UeHJAVxGpymd3wPBH47Mxn1,1,2.297,1,0,7,5,2,7 + 5 = 10,7,12,2,1476987923776,SP_verification,673
mEmB9UeHJAVxGpymd3wPBH47Mxn1,1,1.707,0,0,4,2,4,4 + 2 = 6,1,6,3,1476987923776,SP_verification,674
mEmB9UeHJAVxGpymd3wPBH47Mxn1,1,1.641,0,0,6,2,6,6 + 2 = 8,3,8,5,1476987923776,SP_verification,676
mEmB9UeHJAVxGpymd3wPBH47Mxn1,1,2.796,1,0,9,7,7,9 + 7 = 19,12,16,6,1476987923776,SP_verification,677
mEmB9UeHJAVxGpymd3wPBH47Mxn1,1,4.331,0,0,8,6,9,8 + 6 = 14,10,14,7,1476987923776,SP_verification,678
mEmB9UeHJAVxGpymd3wPBH47Mxn1,1,3.678,1,0,9,4,10,9 + 4 = 15,8,13,8,1476987923776,SP_verification,679
mEmB9UeHJAVxGpymd3wPBH47Mxn1,1,3.033,0,0,9,6,11,9 + 6 = 15,11,15,9,1476987923776,SP_verification,680
mEmB9UeHJAVxGpymd3wPBH47Mxn1,1,3.28,0,0,8,5,12,8 + 5 = 13,9,13,10,1476987923776,SP_verification,681
mEmB9UeHJAVxGpymd3wPBH47Mxn1,1,3.377,1,0,6,3,13,6 + 3 = 12,4,9,11,1476987923776,SP_verification,682
mEmB9UeHJAVxGpymd3wPBH47Mxn1,1,1.827,1,0,7,3,14,7 + 3 = 11,6,10,12,1476987923776,SP_verification,683
mEmB9UeHJAVxGpymd3wPBH47Mxn1,1,5.294,0,0,8,6,15,8 + 6 = 14,10,14,13,1476987923776,SP_verification,684
mEmB9UeHJAVxGpymd3wPBH47Mxn1,1,2.877,0,0,7,3,16,7 + 3 = 10,6,10,14,1476987923776,SP_verification,685
mEmB9UeHJAVxGpymd3wPBH47Mxn1,1,4.41,1,0,6,3,18,6 + 3 = 11,4,9,15,1476987923776,SP_verification,686
mEmB9UeHJAVxGpymd3wPBH47Mxn1,1,2.834,1,0,9,7,19,9 + 7 = 15,12,16,16,1476987923776,SP_verification,687
mEmB9UeHJAVxGpymd3wPBH47Mxn1,1,2.045,0,0,6,2,20,6 + 2 = 8,3,8,17,1476987923776,SP_verification,688
mEmB9UeHJAVxGpymd3wPBH47Mxn1,1,2.025,0,0,8,5,21,8 + 5 = 13,9,13,18,1476987923776,SP_verification,689
mEmB9UeHJAVxGpymd3wPBH47Mxn1,1,2.25,1,0,9,6,22,9 + 6 = 13,11,15,19,1476987923776,SP_verification,690
mEmB9UeHJAVxGpymd3wPBH47Mxn1,1,1.742,1,0,4,2,23,4 + 2 = 5,1,6,20,1476987923776,SP_verification,691
mEmB9UeHJAVxGpymd3wPBH47Mxn1,1,1.713,0,0,5,4,24,5 + 4 = 9,5,9,21,1476987923776,SP_verification,692
mEmB9UeHJAVxGpymd3wPBH47Mxn1,0,1.375,0,0,5,2,23,5 + 2 = 6,2,7,22,1476987923776,SP_verification,693
mEmB9UeHJAVxGpymd3wPBH47Mxn1,0,0.412,1,0,7,5,22,7 + 5 = 12,7,12,23,1476987923776,SP_verification,694
mEmB9UeHJAVxGpymd3wPBH47Mxn1,1,2.39,1,0,5,2,24,5 + 2 = 9,2,7,25,1476987923776,SP_verification,696
mEmB9UeHJAVxGpymd3wPBH47Mxn1,1,6.95,1,0,2,8,1,2 + 8 = 11,5,10,1,1476989274115,VS_verification,727
mEmB9UeHJAVxGpymd3wPBH47Mxn1,1,6.285,0,0,3,5,2,3 + 5 = 8,3,8,2,1476989274115,VS_verification,728
mEmB9UeHJAVxGpymd3wPBH47Mxn1,1,7.802,0,0,3,4,5,3 + 4 = 7,2,7,6,1476989274115,VS_verification,732
mEmB9UeHJAVxGpymd3wPBH47Mxn1,1,8.394,1,0,4,6,6,4 + 6 = 12,6,10,7,1476989274115,VS_verification,733
mEmB9UeHJAVxGpymd3wPBH47Mxn1,1,3.429,0,0,2,3,9,2 + 3 = 5,1,5,9,1476989274115,VS_verification,735
mEmB9UeHJAVxGpymd3wPBH47Mxn1,0,4.44,1,0,2,7,10,2 + 7 = 9,4,9,12,1476989274115,VS_verification,738
mEmB9UeHJAVxGpymd3wPBH47Mxn1,0,4.834,1,0,2,8,9,2 + 8 = 10,5,10,13,1476989274115,VS_verification,739
mEmB9UeHJAVxGpymd3wPBH47Mxn1,1,7.871,1,0,4,8,10,4 + 8 = 11,8,12,14,1476989274115,VS_verification,740
mEmB9UeHJAVxGpymd3wPBH47Mxn1,1,7.834,1,0,7,8,11,7 + 8 = 17,11,15,15,1476989274115,VS_verification,741
mEmB9UeHJAVxGpymd3wPBH47Mxn1,1,7.417,0,0,5,9,12,5 + 9 = 14,10,14,16,1476989274115,VS_verification,742
mEmB9UeHJAVxGpymd3wPBH47Mxn1,1,8.172,1,0,3,9,15,3 + 9 = 10,7,12,18,1476989274115,VS_verification,744
mEmB9UeHJAVxGpymd3wPBH47Mxn1,1,3.008,1,0,2,3,16,2 + 3 = 6,1,5,19,1476989274115,VS_verification,745
mEmB9UeHJAVxGpymd3wPBH47Mxn1,1,7.153,0,0,2,7,17,2 + 7 = 9,4,9,20,1476989274115,VS_verification,746
mEmB9UeHJAVxGpymd3wPBH47Mxn1,1,3.259,1,0,3,4,19,3 + 4 = 8,2,7,21,1476989274115,VS_verification,747
mEmB9UeHJAVxGpymd3wPBH47Mxn1,1,5.044,0,0,4,6,20,4 + 6 = 10,6,10,22,1476989274115,VS_verification,748
mEmB9UeHJAVxGpymd3wPBH47Mxn1,1,3.485,0,0,3,5,22,3 + 5 = 8,3,8,24,1476989274115,VS_verification,750
mEmB9UeHJAVxGpymd3wPBH47Mxn1,1,7.83,0,0,8,9,23,8 + 9 = 17,12,17,25,1476989274115,VS_verification,751
mEmB9UeHJAVxGpymd3wPBH47Mxn1,0,5.424,1,0,2,7,22,2 + 7 = 9,4,9,26,1476989274115,VS_verification,752
mEmB9UeHJAVxGpymd3wPBH47Mxn1,1,5.888,1,0,2,8,23,2 + 8 = 7,5,10,27,1476989274115,VS_verification,753
mEmB9UeHJAVxGpymd3wPBH47Mxn1,1,2.755,17,0,8,9,4,8 + 9 = ?,12,17,3,1476988069147,SP_production_timed,595
mEmB9UeHJAVxGpymd3wPBH47Mxn1,1,2.398,12,0,4,8,5,4 + 8 = ?,8,12,4,1476988069147,SP_production_timed,596
mEmB9UeHJAVxGpymd3wPBH47Mxn1,1,2.432,7,0,3,4,6,3 + 4 = ?,2,7,5,1476988069147,SP_production_timed,597
mEmB9UeHJAVxGpymd3wPBH47Mxn1,1,2.471,12,0,3,9,7,3 + 9 = ?,7,12,6,1476988069147,SP_production_timed,598
mEmB9UeHJAVxGpymd3wPBH47Mxn1,1,2.311,8,0,3,5,10,3 + 5 = ?,3,8,8,1476988069147,SP_production_timed,600
mEmB9UeHJAVxGpymd3wPBH47Mxn1,1,2.168,14,0,5,9,12,5 + 9 = ?,10,14,10,1476988069147,SP_production_timed,602
mEmB9UeHJAVxGpymd3wPBH47Mxn1,1,2.117,10,0,2,8,14,2 + 8 = ?,5,10,12,1476988069147,SP_production_timed,604
mEmB9UeHJAVxGpymd3wPBH47Mxn1,0,2.0,16,0,8,9,12,8 + 9 = ?,12,17,14,1476988069147,SP_production_timed,606
mEmB9UeHJAVxGpymd3wPBH47Mxn1,1,1.968,8,0,3,5,15,3 + 5 = ?,3,8,17,1476988069147,SP_production_timed,609
mEmB9UeHJAVxGpymd3wPBH47Mxn1,1,2.064,5,0,2,3,17,2 + 3 = ?,1,5,18,1476988069147,SP_production_timed,610
mEmB9UeHJAVxGpymd3wPBH47Mxn1,1,2.005,10,0,2,8,18,2 + 8 = ?,5,10,19,1476988069147,SP_production_timed,611
mEmB9UeHJAVxGpymd3wPBH47Mxn1,1,3.483,12,0,4,8,1,4 + 8 = ?,8,12,1,1476987567084,SP_production,646
mEmB9UeHJAVxGpymd3wPBH47Mxn1,1,3.261,10,0,4,6,2,4 + 6 = ?,6,10,2,1476987567084,SP_production,647
mEmB9UeHJAVxGpymd3wPBH47Mxn1,1,2.687,12,0,3,9,4,3 + 9 = ?,7,12,3,1476987567084,SP_production,648
mEmB9UeHJAVxGpymd3wPBH47Mxn1,1,3.714,8,0,3,5,5,3 + 5 = ?,3,8,4,1476987567084,SP_production,649
mEmB9UeHJAVxGpymd3wPBH47Mxn1,1,3.697,10,0,2,8,6,2 + 8 = ?,5,10,5,1476987567084,SP_production,650
mEmB9UeHJAVxGpymd3wPBH47Mxn1,1,3.629,17,0,8,9,7,8 + 9 = ?,12,17,6,1476987567084,SP_production,651
mEmB9UeHJAVxGpymd3wPBH47Mxn1,1,6.075,14,0,5,9,10,5 + 9 = ?,10,14,8,1476987567084,SP_production,653
mEmB9UeHJAVxGpymd3wPBH47Mxn1,1,3.779,9,0,2,7,11,2 + 7 = ?,4,9,9,1476987567084,SP_production,654
mEmB9UeHJAVxGpymd3wPBH47Mxn1,1,2.018,5,0,2,3,12,2 + 3 = ?,1,5,10,1476987567084,SP_production,655
mEmB9UeHJAVxGpymd3wPBH47Mxn1,0,5.241,11,0,6,7,11,6 + 7 = ?,9,13,11,1476987567084,SP_production,656
mEmB9UeHJAVxGpymd3wPBH47Mxn1,0,0.081,no_answer,0,6,7,10,6 + 7 = ?,9,13,12,1476987567084,SP_production,657
mEmB9UeHJAVxGpymd3wPBH47Mxn1,1,3.366,7,0,3,4,12,3 + 4 = ?,2,7,14,1476987567084,SP_production,659
mEmB9UeHJAVxGpymd3wPBH47Mxn1,1,5.537,15,0,7,8,13,7 + 8 = ?,11,15,15,1476987567084,SP_production,660
mEmB9UeHJAVxGpymd3wPBH47Mxn1,1,2.535,10,0,2,8,15,2 + 8 = ?,5,10,16,1476987567084,SP_production,661
mEmB9UeHJAVxGpymd3wPBH47Mxn1,1,2.27,10,0,4,6,17,4 + 6 = ?,6,10,18,1476987567084,SP_production,663
mEmB9UeHJAVxGpymd3wPBH47Mxn1,1,3.882,12,0,3,9,20,3 + 9 = ?,7,12,20,1476987567084,SP_production,665
mEmB9UeHJAVxGpymd3wPBH47Mxn1,1,2.246,7,0,3,4,23,3 + 4 = ?,2,7,23,1476987567084,SP_production,668
mEmB9UeHJAVxGpymd3wPBH47Mxn1,1,1.704,5,0,2,3,24,2 + 3 = ?,1,5,24,1476987567084,SP_production,669
mEmB9UeHJAVxGpymd3wPBH47Mxn1,1,4.064,9,0,2,7,25,2 + 7 = ?,4,9,25,1476987567084,SP_production,670
mEmB9UeHJAVxGpymd3wPBH47Mxn1,1,3.88,17,1,8,9,26,8 + 9 = ?,12,17,26,1476987567084,SP_production,671
mEmB9UeHJAVxGpymd3wPBH47Mxn1,0,7.657,8,0,5,4,0,5 + 4 = ?,5,9,1,1476988508141,VS_production,620
mEmB9UeHJAVxGpymd3wPBH47Mxn1,0,0.666,8,0,5,4,0,5 + 4 = ?,5,9,2,1476988508141,VS_production,621
mEmB9UeHJAVxGpymd3wPBH47Mxn1,1,3.803,9,0,5,4,1,5 + 4 = ?,5,9,3,1476988508141,VS_production,622
mEmB9UeHJAVxGpymd3wPBH47Mxn1,1,9.584,14,0,8,6,3,8 + 6 = ?,10,14,5,1476988508141,VS_production,624
mEmB9UeHJAVxGpymd3wPBH47Mxn1,1,10.169,16,0,9,7,5,9 + 7 = ?,12,16,6,1476988508141,VS_production,625
mEmB9UeHJAVxGpymd3wPBH47Mxn1,1,5.603,6,0,4,2,7,4 + 2 = ?,1,6,8,1476988508141,VS_production,627
mEmB9UeHJAVxGpymd3wPBH47Mxn1,1,4.853,12,0,7,5,8,7 + 5 = ?,7,12,9,1476988508141,VS_production,628
mEmB9UeHJAVxGpymd3wPBH47Mxn1,1,7.339,15,0,9,6,10,9 + 6 = ?,11,15,10,1476988508141,VS_production,629
mEmB9UeHJAVxGpymd3wPBH47Mxn1,1,8.458,13,0,8,5,11,8 + 5 = ?,9,13,11,1476988508141,VS_production,630
mEmB9UeHJAVxGpymd3wPBH47Mxn1,1,6.273,10,0,7,3,13,7 + 3 = ?,6,10,13,1476988508141,VS_production,632
mEmB9UeHJAVxGpymd3wPBH47Mxn1,1,5.705,9,0,6,3,14,6 + 3 = ?,4,9,14,1476988508141,VS_production,633
mEmB9UeHJAVxGpymd3wPBH47Mxn1,1,6.867,13,0,9,4,16,9 + 4 = ?,8,13,15,1476988508141,VS_production,634
mEmB9UeHJAVxGpymd3wPBH47Mxn1,1,6.681,15,0,9,6,17,9 + 6 = ?,11,15,16,1476988508141,VS_production,635
mEmB9UeHJAVxGpymd3wPBH47Mxn1,1,8.739,12,0,7,5,19,7 + 5 = ?,7,12,18,1476988508141,VS_production,637
mEmB9UeHJAVxGpymd3wPBH47Mxn1,1,7.041,9,0,6,3,20,6 + 3 = ?,4,9,19,1476988508141,VS_production,638
mEmB9UeHJAVxGpymd3wPBH47Mxn1,1,6.72,8,0,6,2,25,6 + 2 = ?,3,8,24,1476988508141,VS_production,643
mEmB9UeHJAVxGpymd3wPBH47Mxn1,1,1.405,7,0,2,7,1,2 + ? = 9,4,9,3,1476988219870,SP_missing_timed,700
mEmB9UeHJAVxGpymd3wPBH47Mxn1,0,1.905,7,0,4,8,17,4 + ? = 12,8,12,21,1476988219870,SP_missing_timed,718
mEmB9UeHJAVxGpymd3wPBH47Mxn1,1,2.434,5,0,3,5,22,3 + ? = 8,3,8,25,1476988219870,SP_missing_timed,722
mEmB9UeHJAVxGpymd3wPBH47Mxn1,1,3.824,7,0,6,7,1,6 + ? = 13,9,13,1,1476987756229,SP_missing,755
mEmB9UeHJAVxGpymd3wPBH47Mxn1,1,3.446,6,0,4,6,4,4 + ? = 10,6,10,3,1476987756229,SP_missing,757
mEmB9UeHJAVxGpymd3wPBH47Mxn1,1,2.718,8,0,2,8,6,2 + ? = 10,5,10,5,1476987756229,SP_missing,759
mEmB9UeHJAVxGpymd3wPBH47Mxn1,1,4.081,5,0,3,5,9,3 + ? = 8,3,8,7,1476987756229,SP_missing,761
mEmB9UeHJAVxGpymd3wPBH47Mxn1,1,3.849,7,0,2,7,10,2 + ? = 9,4,9,8,1476987756229,SP_missing,762
mEmB9UeHJAVxGpymd3wPBH47Mxn1,1,5.097,9,0,5,9,11,5 + ? = 14,10,14,9,1476987756229,SP_missing,763
mEmB9UeHJAVxGpymd3wPBH47Mxn1,1,3.562,3,0,2,3,13,2 + ? = 5,1,5,11,1476987756229,SP_missing,765
mEmB9UeHJAVxGpymd3wPBH47Mxn1,1,2.316,8,0,2,8,15,2 + ? = 10,5,10,13,1476987756229,SP_missing,767
mEmB9UeHJAVxGpymd3wPBH47Mxn1,1,4.214,9,0,8,9,16,8 + ? = 17,12,17,14,1476987756229,SP_missing,768
mEmB9UeHJAVxGpymd3wPBH47Mxn1,1,4.312,7,0,6,7,18,6 + ? = 13,9,13,15,1476987756229,SP_missing,769
mEmB9UeHJAVxGpymd3wPBH47Mxn1,1,2.534,6,0,4,6,24,4 + ? = 10,6,10,21,1476987756229,SP_missing,775
TncS4HnOmtggHagqhbAGBxG5eMD2,1,9.35,1,0,4,2,1,4 + 2 = 7,1,6,1,1476988401147,SP_verification,804
TncS4HnOmtggHagqhbAGBxG5eMD2,1,2.775,1,0,9,6,2,9 + 6 = 13,11,15,2,1476988401147,SP_verification,805
TncS4HnOmtggHagqhbAGBxG5eMD2,1,3.509,0,0,6,3,4,6 + 3 = 9,4,9,3,1476988401147,SP_verification,806
TncS4HnOmtggHagqhbAGBxG5eMD2,1,3.311,1,0,7,5,5,7 + 5 = 15,7,12,4,1476988401147,SP_verification,807
TncS4HnOmtggHagqhbAGBxG5eMD2,1,3.257,1,0,8,5,6,8 + 5 = 12,9,13,5,1476988401147,SP_verification,808
TncS4HnOmtggHagqhbAGBxG5eMD2,0,1.765,1,0,9,7,5,9 + 7 = 16,12,16,6,1476988401147,SP_verification,809
TncS4HnOmtggHagqhbAGBxG5eMD2,0,0.99,0,0,6,2,4,6 + 2 = 7,3,8,7,1476988401147,SP_verification,810
TncS4HnOmtggHagqhbAGBxG5eMD2,1,2.526,1,0,5,4,5,5 + 4 = 14,5,9,8,1476988401147,SP_verification,811
TncS4HnOmtggHagqhbAGBxG5eMD2,1,5.089,0,0,5,2,6,5 + 2 = 7,2,7,9,1476988401147,SP_verification,812
TncS4HnOmtggHagqhbAGBxG5eMD2,1,5.047,1,0,7,3,7,7 + 3 = 12,6,10,10,1476988401147,SP_verification,813
TncS4HnOmtggHagqhbAGBxG5eMD2,1,5.875,1,0,9,4,9,9 + 4 = 12,8,13,11,1476988401147,SP_verification,814
TncS4HnOmtggHagqhbAGBxG5eMD2,0,1.178,0,0,6,3,7,6 + 3 = 4,4,9,13,1476988401147,SP_verification,816
TncS4HnOmtggHagqhbAGBxG5eMD2,0,1.125,1,0,5,4,6,5 + 4 = 9,5,9,14,1476988401147,SP_verification,817
TncS4HnOmtggHagqhbAGBxG5eMD2,1,3.166,0,0,4,2,7,4 + 2 = 6,1,6,15,1476988401147,SP_verification,818
TncS4HnOmtggHagqhbAGBxG5eMD2,1,27.298,1,0,5,2,8,5 + 2 = 6,2,7,16,1476988401147,SP_verification,819
TncS4HnOmtggHagqhbAGBxG5eMD2,0,9.908,1,0,9,7,7,9 + 7 = 16,12,16,17,1476988401147,SP_verification,820
TncS4HnOmtggHagqhbAGBxG5eMD2,0,0.76,0,0,8,5,6,8 + 5 = 14,9,13,18,1476988401147,SP_verification,821
TncS4HnOmtggHagqhbAGBxG5eMD2,1,1.214,0,0,7,3,7,7 + 3 = 10,6,10,19,1476988401147,SP_verification,822
TncS4HnOmtggHagqhbAGBxG5eMD2,0,6.366,1,0,7,5,6,7 + 5 = 12,7,12,20,1476988401147,SP_verification,823
TncS4HnOmtggHagqhbAGBxG5eMD2,1,2.535,1,0,9,6,7,9 + 6 = 16,11,15,21,1476988401147,SP_verification,824
TncS4HnOmtggHagqhbAGBxG5eMD2,1,13.199,1,0,9,4,8,9 + 4 = 11,8,13,22,1476988401147,SP_verification,825
TncS4HnOmtggHagqhbAGBxG5eMD2,1,8.245,1,0,6,2,13,6 + 2 = 5,3,8,26,1476988401147,SP_verification,829
TncS4HnOmtggHagqhbAGBxG5eMD2,0,8.823,1,0,8,6,12,8 + 6 = 14,10,14,27,1476988401147,SP_verification,830
TncS4HnOmtggHagqhbAGBxG5eMD2,0,0.879,0,0,6,3,11,6 + 3 = 10,4,9,28,1476988401147,SP_verification,831
TncS4HnOmtggHagqhbAGBxG5eMD2,1,4.541,0,0,5,4,12,5 + 4 = 9,5,9,29,1476988401147,SP_verification,832
TncS4HnOmtggHagqhbAGBxG5eMD2,0,1.996,1,0,9,7,11,9 + 7 = 16,12,16,30,1476988401147,SP_verification,833
TncS4HnOmtggHagqhbAGBxG5eMD2,0,17.015,0,0,8,5,10,8 + 5 = 11,9,13,31,1476988401147,SP_verification,834
TncS4HnOmtggHagqhbAGBxG5eMD2,1,14.821,0,0,7,5,11,7 + 5 = 12,7,12,32,1476988401147,SP_verification,835
TncS4HnOmtggHagqhbAGBxG5eMD2,1,9.949,0,0,8,6,12,8 + 6 = 14,10,14,33,1476988401147,SP_verification,836
TncS4HnOmtggHagqhbAGBxG5eMD2,1,9.013,0,0,9,7,15,9 + 7 = 16,12,16,35,1476988401147,SP_verification,838
TncS4HnOmtggHagqhbAGBxG5eMD2,1,5.527,1,1,8,5,16,8 + 5 = 18,9,13,36,1476988401147,SP_verification,839
TncS4HnOmtggHagqhbAGBxG5eMD2,1,3.179,10,0,4,6,1,4 + 6 = ?,6,10,2,1476988830503,SP_production_timed,902
TncS4HnOmtggHagqhbAGBxG5eMD2,1,3.551,12,0,3,9,2,3 + 9 = ?,7,12,3,1476988830503,SP_production_timed,903
TncS4HnOmtggHagqhbAGBxG5eMD2,0,3.651,no_answer,0,3,4,1,3 + 4 = ?,2,7,4,1476988830503,SP_production_timed,904
TncS4HnOmtggHagqhbAGBxG5eMD2,1,1.479,7,0,3,4,2,3 + 4 = ?,2,7,5,1476988830503,SP_production_timed,905
TncS4HnOmtggHagqhbAGBxG5eMD2,0,3.668,no_answer,0,2,7,1,2 + 7 = ?,4,9,6,1476988830503,SP_production_timed,906
TncS4HnOmtggHagqhbAGBxG5eMD2,1,1.93,9,0,2,7,2,2 + 7 = ?,4,9,7,1476988830503,SP_production_timed,907
TncS4HnOmtggHagqhbAGBxG5eMD2,1,3.727,14,0,5,9,3,5 + 9 = ?,10,14,8,1476988830503,SP_production_timed,908
TncS4HnOmtggHagqhbAGBxG5eMD2,0,3.687,no_answer,0,3,5,2,3 + 5 = ?,3,8,9,1476988830503,SP_production_timed,909
TncS4HnOmtggHagqhbAGBxG5eMD2,0,3.881,9,0,3,5,1,3 + 5 = ?,3,8,10,1476988830503,SP_production_timed,910
TncS4HnOmtggHagqhbAGBxG5eMD2,1,4.25,5,0,2,3,1,2 + 3 = ?,1,5,12,1476988830503,SP_production_timed,912
TncS4HnOmtggHagqhbAGBxG5eMD2,0,3.737,no_answer,0,6,7,0,6 + 7 = ?,9,13,13,1476988830503,SP_production_timed,913
TncS4HnOmtggHagqhbAGBxG5eMD2,0,4.835,no_answer,0,6,7,0,6 + 7 = ?,9,13,14,1476988830503,SP_production_timed,914
TncS4HnOmtggHagqhbAGBxG5eMD2,1,1.596,12,0,4,8,1,4 + 8 = ?,8,12,23,1476988830503,SP_production_timed,923
TncS4HnOmtggHagqhbAGBxG5eMD2,1,2.371,13,0,6,7,5,6 + 7 = ?,9,13,28,1476988830503,SP_production_timed,928
TncS4HnOmtggHagqhbAGBxG5eMD2,1,3.049,5,0,2,3,2,2 + 3 = ?,1,5,45,1476988830503,SP_production_timed,945
TncS4HnOmtggHagqhbAGBxG5eMD2,1,2.246,17,1,8,9,1,8 + 9 = ?,12,17,58,1476988830503,SP_production_timed,958
TncS4HnOmtggHagqhbAGBxG5eMD2,1,8.583,10,0,4,6,2,4 + 6 = ?,6,10,2,1476987615390,SP_production,780
TncS4HnOmtggHagqhbAGBxG5eMD2,1,7.282,12,0,4,8,4,4 + 8 = ?,8,12,3,1476987615390,SP_production,781
TncS4HnOmtggHagqhbAGBxG5eMD2,1,17.413,13,0,6,7,5,6 + 7 = ?,9,13,4,1476987615390,SP_production,782
TncS4HnOmtggHagqhbAGBxG5eMD2,1,5.231,9,0,2,7,6,2 + 7 = ?,4,9,5,1476987615390,SP_production,783
TncS4HnOmtggHagqhbAGBxG5eMD2,1,14.061,10,0,2,8,7,2 + 8 = ?,5,10,6,1476987615390,SP_production,784
TncS4HnOmtggHagqhbAGBxG5eMD2,0,5.238,15,0,3,5,6,3 + 5 = ?,3,8,7,1476987615390,SP_production,785
TncS4HnOmtggHagqhbAGBxG5eMD2,1,20.65,8,0,3,5,7,3 + 5 = ?,3,8,8,1476987615390,SP_production,786
TncS4HnOmtggHagqhbAGBxG5eMD2,1,10.08,14,0,5,9,8,5 + 9 = ?,10,14,9,1476987615390,SP_production,787
TncS4HnOmtggHagqhbAGBxG5eMD2,1,8.53,12,0,3,9,9,3 + 9 = ?,7,12,10,1476987615390,SP_production,788
TncS4HnOmtggHagqhbAGBxG5eMD2,1,3.178,5,0,2,3,11,2 + 3 = ?,1,5,11,1476987615390,SP_production,789
TncS4HnOmtggHagqhbAGBxG5eMD2,1,17.814,7,0,3,4,12,3 + 4 = ?,2,7,12,1476987615390,SP_production,790
TncS4HnOmtggHagqhbAGBxG5eMD2,1,11.546,15,0,7,8,13,7 + 8 = ?,11,15,13,1476987615390,SP_production,791
TncS4HnOmtggHagqhbAGBxG5eMD2,1,18.799,17,0,8,9,14,8 + 9 = ?,12,17,14,1476987615390,SP_production,792
TncS4HnOmtggHagqhbAGBxG5eMD2,1,16.438,8,0,3,5,16,3 + 5 = ?,3,8,15,1476987615390,SP_production,793
TncS4HnOmtggHagqhbAGBxG5eMD2,1,3.613,5,0,2,3,17,2 + 3 = ?,1,5,16,1476987615390,SP_production,794
TncS4HnOmtggHagqhbAGBxG5eMD2,1,5.471,7,0,3,4,18,3 + 4 = ?,2,7,17,1476987615390,SP_production,795
TncS4HnOmtggHagqhbAGBxG5eMD2,1,7.975,14,0,5,9,19,5 + 9 = ?,10,14,18,1476987615390,SP_production,796
TncS4HnOmtggHagqhbAGBxG5eMD2,1,10.771,12,0,3,9,20,3 + 9 = ?,7,12,19,1476987615390,SP_production,797
TncS4HnOmtggHagqhbAGBxG5eMD2,1,5.059,10,0,4,6,21,4 + 6 = ?,6,10,20,1476987615390,SP_production,798
TncS4HnOmtggHagqhbAGBxG5eMD2,1,3.294,10,0,2,8,22,2 + 8 = ?,5,10,21,1476987615390,SP_production,799
TncS4HnOmtggHagqhbAGBxG5eMD2,1,12.463,15,0,7,8,23,7 + 8 = ?,11,15,22,1476987615390,SP_production,800
TncS4HnOmtggHagqhbAGBxG5eMD2,1,10.296,9,1,2,7,27,2 + 7 = ?,4,9,25,1476987615390,SP_production,803
TncS4HnOmtggHagqhbAGBxG5eMD2,0,3.396,no_answer,0,2,8,0,2 + ? = 10,5,10,1,1476989191023,SP_missing_timed,840
TncS4HnOmtggHagqhbAGBxG5eMD2,1,4.6,8,0,2,8,1,2 + ? = 10,5,10,2,1476989191023,SP_missing_timed,841
TncS4HnOmtggHagqhbAGBxG5eMD2,0,3.634,no_answer,0,6,7,0,6 + ? = 13,9,13,3,1476989191023,SP_missing_timed,842
TncS4HnOmtggHagqhbAGBxG5eMD2,1,2.614,7,0,6,7,1,6 + ? = 13,9,13,4,1476989191023,SP_missing_timed,843
TncS4HnOmtggHagqhbAGBxG5eMD2,0,3.569,no_answer,0,3,5,0,3 + ? = 8,3,8,5,1476989191023,SP_missing_timed,844
TncS4HnOmtggHagqhbAGBxG5eMD2,0,4.934,no_answer,0,3,5,0,3 + ? = 8,3,8,6,1476989191023,SP_missing_timed,845
TncS4HnOmtggHagqhbAGBxG5eMD2,0,4.351,no_answer,0,3,4,0,3 + ? = 7,2,7,9,1476989191023,SP_missing_timed,848
TncS4HnOmtggHagqhbAGBxG5eMD2,1,2.833,4,0,3,4,1,3 + ? = 7,2,7,10,1476989191023,SP_missing_timed,849
TncS4HnOmtggHagqhbAGBxG5eMD2,0,3.752,no_answer,0,4,8,0,4 + ? = 12,8,12,11,1476989191023,SP_missing_timed,850
TncS4HnOmtggHagqhbAGBxG5eMD2,0,4.651,88,0,4,8,0,4 + ? = 12,8,12,12,1476989191023,SP_missing_timed,851
TncS4HnOmtggHagqhbAGBxG5eMD2,1,1.734,8,0,4,8,1,4 + ? = 12,8,12,13,1476989191023,SP_missing_timed,852
TncS4HnOmtggHagqhbAGBxG5eMD2,0,3.503,no_answer,0,3,9,0,3 + ? = 12,7,12,14,1476989191023,SP_missing_timed,853
TncS4HnOmtggHagqhbAGBxG5eMD2,0,4.687,no_answer,0,3,9,0,3 + ? = 12,7,12,15,1476989191023,SP_missing_timed,854
TncS4HnOmtggHagqhbAGBxG5eMD2,1,4.368,9,0,8,9,1,8 + ? = 17,12,17,17,1476989191023,SP_missing_timed,856
TncS4HnOmtggHagqhbAGBxG5eMD2,0,3.883,no_answer,0,7,8,0,7 + ? = 15,11,15,18,1476989191023,SP_missing_timed,857
TncS4HnOmtggHagqhbAGBxG5eMD2,0,1.685,5,0,7,8,0,7 + ? = 15,11,15,19,1476989191023,SP_missing_timed,858
TncS4HnOmtggHagqhbAGBxG5eMD2,0,3.617,no_answer,0,4,6,0,4 + ? = 10,6,10,22,1476989191023,SP_missing_timed,861
TncS4HnOmtggHagqhbAGBxG5eMD2,1,3.159,6,0,4,6,1,4 + ? = 10,6,10,23,1476989191023,SP_missing_timed,862
TncS4HnOmtggHagqhbAGBxG5eMD2,1,3.836,9,0,5,9,2,5 + ? = 14,10,14,24,1476989191023,SP_missing_timed,863
TncS4HnOmtggHagqhbAGBxG5eMD2,0,3.983,no_answer,0,3,4,1,3 + ? = 7,2,7,25,1476989191023,SP_missing_timed,864
TncS4HnOmtggHagqhbAGBxG5eMD2,1,4.205,4,0,3,4,2,3 + ? = 7,2,7,26,1476989191023,SP_missing_timed,865
TncS4HnOmtggHagqhbAGBxG5eMD2,0,4.235,no_answer,0,5,9,1,5 + ? = 14,10,14,27,1476989191023,SP_missing_timed,866
TncS4HnOmtggHagqhbAGBxG5eMD2,1,3.512,8,0,2,8,1,2 + ? = 10,5,10,30,1476989191023,SP_missing_timed,869
TncS4HnOmtggHagqhbAGBxG5eMD2,0,3.819,no_answer,0,4,8,0,4 + ? = 12,8,12,31,1476989191023,SP_missing_timed,870
TncS4HnOmtggHagqhbAGBxG5eMD2,1,1.78,8,0,4,8,1,4 + ? = 12,8,12,32,1476989191023,SP_missing_timed,871
TncS4HnOmtggHagqhbAGBxG5eMD2,0,4.091,no_answer,0,8,9,0,8 + ? = 17,12,17,33,1476989191023,SP_missing_timed,872
TncS4HnOmtggHagqhbAGBxG5eMD2,1,2.705,9,0,8,9,1,8 + ? = 17,12,17,34,1476989191023,SP_missing_timed,873
TncS4HnOmtggHagqhbAGBxG5eMD2,0,3.87,no_answer,0,2,3,0,2 + ? = 5,1,5,35,1476989191023,SP_missing_timed,874
TncS4HnOmtggHagqhbAGBxG5eMD2,1,2.465,3,0,2,3,1,2 + ? = 5,1,5,36,1476989191023,SP_missing_timed,875
TncS4HnOmtggHagqhbAGBxG5eMD2,0,4.051,no_answer,0,3,5,1,3 + ? = 8,3,8,38,1476989191023,SP_missing_timed,877
TncS4HnOmtggHagqhbAGBxG5eMD2,0,4.086,no_answer,0,6,7,0,6 + ? = 13,9,13,42,1476989191023,SP_missing_timed,881
TncS4HnOmtggHagqhbAGBxG5eMD2,0,3.587,no_answer,0,3,9,0,3 + ? = 12,7,12,44,1476989191023,SP_missing_timed,883
TncS4HnOmtggHagqhbAGBxG5eMD2,0,2.165,5,0,3,9,0,3 + ? = 12,7,12,45,1476989191023,SP_missing_timed,884
TncS4HnOmtggHagqhbAGBxG5eMD2,0,3.552,no_answer,0,3,5,0,3 + ? = 8,3,8,48,1476989191023,SP_missing_timed,887
TncS4HnOmtggHagqhbAGBxG5eMD2,1,1.957,5,1,3,5,3,3 + ? = 8,3,8,61,1476989191023,SP_missing_timed,900
TncS4HnOmtggHagqhbAGBxG5eMD2,1,10.26,7,0,2,7,1,2 + ? = 9,4,9,1,1476987991903,SP_missing,959
TncS4HnOmtggHagqhbAGBxG5eMD2,1,6.663,8,0,7,8,2,7 + ? = 15,11,15,2,1476987991903,SP_missing,960
TncS4HnOmtggHagqhbAGBxG5eMD2,1,28.066,9,0,5,9,4,5 + ? = 14,10,14,3,1476987991903,SP_missing,961
TncS4HnOmtggHagqhbAGBxG5eMD2,1,5.998,3,0,2,3,5,2 + ? = 5,1,5,4,1476987991903,SP_missing,962
TncS4HnOmtggHagqhbAGBxG5eMD2,1,8.302,6,0,4,6,6,4 + ? = 10,6,10,5,1476987991903,SP_missing,963
TncS4HnOmtggHagqhbAGBxG5eMD2,1,8.114,9,0,3,9,7,3 + ? = 12,7,12,6,1476987991903,SP_missing,964
TncS4HnOmtggHagqhbAGBxG5eMD2,1,4.417,8,0,4,8,9,4 + ? = 12,8,12,7,1476987991903,SP_missing,965
TncS4HnOmtggHagqhbAGBxG5eMD2,0,10.246,4,0,3,5,8,3 + ? = 8,3,8,8,1476987991903,SP_missing,966
TncS4HnOmtggHagqhbAGBxG5eMD2,1,13.314,5,0,3,5,9,3 + ? = 8,3,8,9,1476987991903,SP_missing,967
TncS4HnOmtggHagqhbAGBxG5eMD2,1,10.233,8,0,2,8,10,2 + ? = 10,5,10,10,1476987991903,SP_missing,968
TncS4HnOmtggHagqhbAGBxG5eMD2,1,24.913,9,0,8,9,11,8 + ? = 17,12,17,11,1476987991903,SP_missing,969
TncS4HnOmtggHagqhbAGBxG5eMD2,1,11.464,7,0,6,7,13,6 + ? = 13,9,13,12,1476987991903,SP_missing,970
TncS4HnOmtggHagqhbAGBxG5eMD2,1,9.383,4,0,3,4,14,3 + ? = 7,2,7,13,1476987991903,SP_missing,971
TncS4HnOmtggHagqhbAGBxG5eMD2,1,6.031,9,0,3,9,15,3 + ? = 12,7,12,14,1476987991903,SP_missing,972
TncS4HnOmtggHagqhbAGBxG5eMD2,1,6.449,7,0,2,7,18,2 + ? = 9,4,9,16,1476987991903,SP_missing,974
TncS4HnOmtggHagqhbAGBxG5eMD2,1,4.829,5,0,3,5,19,3 + ? = 8,3,8,17,1476987991903,SP_missing,975
TncS4HnOmtggHagqhbAGBxG5eMD2,1,5.046,8,0,2,8,20,2 + ? = 10,5,10,18,1476987991903,SP_missing,976
TncS4HnOmtggHagqhbAGBxG5eMD2,1,3.979,3,0,2,3,22,2 + ? = 5,1,5,20,1476987991903,SP_missing,978
TncS4HnOmtggHagqhbAGBxG5eMD2,1,13.313,6,0,4,6,23,4 + ? = 10,6,10,21,1476987991903,SP_missing,979
TncS4HnOmtggHagqhbAGBxG5eMD2,1,18.348,4,0,3,4,25,3 + ? = 7,2,7,23,1476987991903,SP_missing,981
TncS4HnOmtggHagqhbAGBxG5eMD2,1,6.487,7,0,6,7,27,6 + ? = 13,9,13,24,1476987991903,SP_missing,982
0L7H5GGPaTOs5Q4qi9UBfapp6gM2,0,14.896,4,0,9,6,0,9 + ? = 15,11,15,1,1476989558767,VS_missing,1018
0L7H5GGPaTOs5Q4qi9UBfapp6gM2,1,5.325,6,0,9,6,0,9 + ? = 15,11,15,2,1476989558767,VS_missing,1019
0L7H5GGPaTOs5Q4qi9UBfapp6gM2,0,5.072,3,0,9,4,1,9 + ? = 13,8,13,3,1476989558767,VS_missing,1020
0L7H5GGPaTOs5Q4qi9UBfapp6gM2,1,2.212,4,0,9,4,0,9 + ? = 13,8,13,4,1476989558767,VS_missing,1021
0L7H5GGPaTOs5Q4qi9UBfapp6gM2,1,0.671,1,0,5,2,1,5 + 2 = 5,2,7,2,1476989117001,SP_verification_timed,985
0L7H5GGPaTOs5Q4qi9UBfapp6gM2,1,1.666,0,0,6,2,2,6 + 2 = 8,3,8,5,1476989117001,SP_verification_timed,988
0L7H5GGPaTOs5Q4qi9UBfapp6gM2,1,1.341,1,0,7,5,3,7 + 5 = 11,7,12,6,1476989117001,SP_verification_timed,989
0L7H5GGPaTOs5Q4qi9UBfapp6gM2,0,1.686,1,0,9,7,2,9 + 7 = 16,12,16,7,1476989117001,SP_verification_timed,990
0L7H5GGPaTOs5Q4qi9UBfapp6gM2,0,0.559,1,0,4,2,1,4 + 2 = 6,1,6,9,1476989117001,SP_verification_timed,992
0L7H5GGPaTOs5Q4qi9UBfapp6gM2,0,1.761,1,0,9,6,0,9 + 6 = 15,11,15,10,1476989117001,SP_verification_timed,993
0L7H5GGPaTOs5Q4qi9UBfapp6gM2,1,1.202,1,0,9,6,3,9 + 6 = 17,11,15,15,1476989117001,SP_verification_timed,998
0L7H5GGPaTOs5Q4qi9UBfapp6gM2,1,1.036,0,0,4,2,5,4 + 2 = 6,1,6,17,1476989117001,SP_verification_timed,1000
0L7H5GGPaTOs5Q4qi9UBfapp6gM2,1,1.524,0,0,6,3,8,6 + 3 = 9,4,9,20,1476989117001,SP_verification_timed,1003
0L7H5GGPaTOs5Q4qi9UBfapp6gM2,1,1.411,0,0,8,5,11,8 + 5 = 13,9,13,22,1476989117001,SP_verification_timed,1005
0L7H5GGPaTOs5Q4qi9UBfapp6gM2,1,1.316,0,0,4,2,11,4 + 2 = 6,1,6,26,1476989117001,SP_verification_timed,1009
0L7H5GGPaTOs5Q4qi9UBfapp6gM2,0,1.36,1,0,9,6,10,9 + 6 = 15,11,15,27,1476989117001,SP_verification_timed,1010
0L7H5GGPaTOs5Q4qi9UBfapp6gM2,0,1.096,1,0,9,7,12,9 + 7 = 16,12,16,31,1476989117001,SP_verification_timed,1014
0L7H5GGPaTOs5Q4qi9UBfapp6gM2,1,1.061,0,1,9,7,13,9 + 7 = 16,12,16,34,1476989117001,SP_verification_timed,1017
0L7H5GGPaTOs5Q4qi9UBfapp6gM2,0,4.133,1,0,8,5,0,8 + 5 = 13,9,13,1,1476988290594,SP_verification,1114
0L7H5GGPaTOs5Q4qi9UBfapp6gM2,0,2.227,0,0,5,4,0,5 + 4 = 4,5,9,2,1476988290594,SP_verification,1115
0L7H5GGPaTOs5Q4qi9UBfapp6gM2,1,2.208,0,0,5,2,1,5 + 2 = 7,2,7,3,1476988290594,SP_verification,1116
0L7H5GGPaTOs5Q4qi9UBfapp6gM2,1,6.019,1,0,7,3,2,7 + 3 = 8,6,10,4,1476988290594,SP_verification,1117
0L7H5GGPaTOs5Q4qi9UBfapp6gM2,0,4.408,0,0,8,6,1,8 + 6 = 15,10,14,5,1476988290594,SP_verification,1118
0L7H5GGPaTOs5Q4qi9UBfapp6gM2,0,2.81,1,0,9,7,0,9 + 7 = 16,12,16,6,1476988290594,SP_verification,1119
0L7H5GGPaTOs5Q4qi9UBfapp6gM2,0,6.226,0,0,6,3,0,6 + 3 = 13,4,9,7,1476988290594,SP_verification,1120
0L7H5GGPaTOs5Q4qi9UBfapp6gM2,0,4.905,1,0,9,4,0,9 + 4 = 13,8,13,8,1476988290594,SP_verification,1121
0L7H5GGPaTOs5Q4qi9UBfapp6gM2,1,4.343,1,0,9,6,1,9 + 6 = 13,11,15,9,1476988290594,SP_verification,1122
0L7H5GGPaTOs5Q4qi9UBfapp6gM2,1,8.875,1,0,6,2,2,6 + 2 = 7,3,8,10,1476988290594,SP_verification,1123
0L7H5GGPaTOs5Q4qi9UBfapp6gM2,1,3.635,0,0,4,2,2,4 + 2 = 6,1,6,12,1476988290594,SP_verification,1125
0L7H5GGPaTOs5Q4qi9UBfapp6gM2,1,1.534,1,0,7,3,2,7 + 3 = 9,6,10,14,1476988290594,SP_verification,1127
0L7H5GGPaTOs5Q4qi9UBfapp6gM2,1,4.798,0,0,4,2,3,4 + 2 = 6,1,6,15,1476988290594,SP_verification,1128
0L7H5GGPaTOs5Q4qi9UBfapp6gM2,0,5.197,1,0,8,5,3,8 + 5 = 13,9,13,17,1476988290594,SP_verification,1130
0L7H5GGPaTOs5Q4qi9UBfapp6gM2,0,2.706,0,0,9,7,2,9 + 7 = 21,12,16,18,1476988290594,SP_verification,1131
0L7H5GGPaTOs5Q4qi9UBfapp6gM2,0,3.397,1,0,5,2,1,5 + 2 = 7,2,7,19,1476988290594,SP_verification,1132
0L7H5GGPaTOs5Q4qi9UBfapp6gM2,0,2.092,0,0,6,3,0,6 + 3 = 7,4,9,20,1476988290594,SP_verification,1133
0L7H5GGPaTOs5Q4qi9UBfapp6gM2,1,5.412,1,0,9,6,1,9 + 6 = 14,11,15,21,1476988290594,SP_verification,1134
0L7H5GGPaTOs5Q4qi9UBfapp6gM2,1,2.864,0,0,6,2,2,6 + 2 = 8,3,8,22,1476988290594,SP_verification,1135
0L7H5GGPaTOs5Q4qi9UBfapp6gM2,0,1.847,1,0,5,4,1,5 + 4 = 9,5,9,23,1476988290594,SP_verification,1136
0L7H5GGPaTOs5Q4qi9UBfapp6gM2,0,5.926,0,0,8,6,0,8 + 6 = 12,10,14,24,1476988290594,SP_verification,1137
0L7H5GGPaTOs5Q4qi9UBfapp6gM2,0,5.981,1,0,8,5,0,8 + 5 = 13,9,13,25,1476988290594,SP_verification,1138
0L7H5GGPaTOs5Q4qi9UBfapp6gM2,0,2.926,0,0,5,4,0,5 + 4 = 8,5,9,26,1476988290594,SP_verification,1139
0L7H5GGPaTOs5Q4qi9UBfapp6gM2,0,3.712,0,0,8,6,0,8 + 6 = 12,10,14,27,1476988290594,SP_verification,1140
0L7H5GGPaTOs5Q4qi9UBfapp6gM2,0,2.995,1,0,9,7,0,9 + 7 = 16,12,16,28,1476988290594,SP_verification,1141
0L7H5GGPaTOs5Q4qi9UBfapp6gM2,1,3.713,1,0,6,3,1,6 + 3 = 13,4,9,29,1476988290594,SP_verification,1142
0L7H5GGPaTOs5Q4qi9UBfapp6gM2,0,4.779,1,0,9,4,0,9 + 4 = 13,8,13,30,1476988290594,SP_verification,1143
0L7H5GGPaTOs5Q4qi9UBfapp6gM2,1,1.666,0,0,7,5,1,7 + 5 = 12,7,12,31,1476988290594,SP_verification,1144
0L7H5GGPaTOs5Q4qi9UBfapp6gM2,1,4.636,1,0,9,4,2,9 + 4 = 12,8,13,32,1476988290594,SP_verification,1145
0L7H5GGPaTOs5Q4qi9UBfapp6gM2,0,6.147,1,0,8,5,1,8 + 5 = 13,9,13,33,1476988290594,SP_verification,1146
0L7H5GGPaTOs5Q4qi9UBfapp6gM2,1,2.261,1,0,9,7,2,9 + 7 = 13,12,16,34,1476988290594,SP_verification,1147
0L7H5GGPaTOs5Q4qi9UBfapp6gM2,1,2.237,0,0,5,2,3,5 + 2 = 7,2,7,35,1476988290594,SP_verification,1148
0L7H5GGPaTOs5Q4qi9UBfapp6gM2,0,2.143,0,0,6,3,2,6 + 3 = 10,4,9,36,1476988290594,SP_verification,1149
0L7H5GGPaTOs5Q4qi9UBfapp6gM2,1,2.327,0,0,5,4,3,5 + 4 = 9,5,9,37,1476988290594,SP_verification,1150
0L7H5GGPaTOs5Q4qi9UBfapp6gM2,1,7.141,1,0,8,6,4,8 + 6 = 15,10,14,38,1476988290594,SP_verification,1151
0L7H5GGPaTOs5Q4qi9UBfapp6gM2,1,2.357,1,0,5,4,7,5 + 4 = 8,5,9,40,1476988290594,SP_verification,1153
0L7H5GGPaTOs5Q4qi9UBfapp6gM2,1,3.746,0,0,9,4,10,9 + 4 = 13,8,13,43,1476988290594,SP_verification,1156
0L7H5GGPaTOs5Q4qi9UBfapp6gM2,1,4.058,0,0,8,5,12,8 + 5 = 13,9,13,44,1476988290594,SP_verification,1157
0L7H5GGPaTOs5Q4qi9UBfapp6gM2,1,3.931,1,1,6,3,12,6 + 3 = 11,4,9,46,1476988290594,SP_verification,1159
0L7H5GGPaTOs5Q4qi9UBfapp6gM2,1,2.929,7,0,3,4,1,3 + 4 = ?,2,7,1,1476988603945,SP_production_timed,1022
0L7H5GGPaTOs5Q4qi9UBfapp6gM2,1,2.783,10,0,4,6,2,4 + 6 = ?,6,10,2,1476988603945,SP_production_timed,1023
0L7H5GGPaTOs5Q4qi9UBfapp6gM2,0,3.434,no_answer,0,2,8,1,2 + 8 = ?,5,10,3,1476988603945,SP_production_timed,1024
0L7H5GGPaTOs5Q4qi9UBfapp6gM2,1,1.562,10,0,2,8,2,2 + 8 = ?,5,10,4,1476988603945,SP_production_timed,1025
0L7H5GGPaTOs5Q4qi9UBfapp6gM2,1,3.331,5,0,2,3,3,2 + 3 = ?,1,5,5,1476988603945,SP_production_timed,1026
0L7H5GGPaTOs5Q4qi9UBfapp6gM2,0,3.496,no_answer,0,8,9,2,8 + 9 = ?,12,17,6,1476988603945,SP_production_timed,1027
0L7H5GGPaTOs5Q4qi9UBfapp6gM2,1,1.675,17,0,8,9,3,8 + 9 = ?,12,17,7,1476988603945,SP_production_timed,1028
0L7H5GGPaTOs5Q4qi9UBfapp6gM2,1,3.133,9,0,2,7,4,2 + 7 = ?,4,9,8,1476988603945,SP_production_timed,1029
0L7H5GGPaTOs5Q4qi9UBfapp6gM2,0,3.516,no_answer,0,6,7,3,6 + 7 = ?,9,13,9,1476988603945,SP_production_timed,1030
0L7H5GGPaTOs5Q4qi9UBfapp6gM2,1,1.418,13,0,6,7,3,6 + 7 = ?,9,13,11,1476988603945,SP_production_timed,1032
0L7H5GGPaTOs5Q4qi9UBfapp6gM2,1,3.055,8,0,3,5,4,3 + 5 = ?,3,8,12,1476988603945,SP_production_timed,1033
0L7H5GGPaTOs5Q4qi9UBfapp6gM2,1,2.601,12,0,4,8,5,4 + 8 = ?,8,12,13,1476988603945,SP_production_timed,1034
0L7H5GGPaTOs5Q4qi9UBfapp6gM2,1,1.366,12,0,3,9,5,3 + 9 = ?,7,12,15,1476988603945,SP_production_timed,1036
0L7H5GGPaTOs5Q4qi9UBfapp6gM2,0,3.684,no_answer,0,7,8,4,7 + 8 = ?,11,15,16,1476988603945,SP_production_timed,1037
0L7H5GGPaTOs5Q4qi9UBfapp6gM2,1,2.801,15,0,7,8,5,7 + 8 = ?,11,15,17,1476988603945,SP_production_timed,1038
0L7H5GGPaTOs5Q4qi9UBfapp6gM2,0,3.562,15,0,5,9,4,5 + 9 = ?,10,14,18,1476988603945,SP_production_timed,1039
0L7H5GGPaTOs5Q4qi9UBfapp6gM2,1,3.679,14,0,5,9,5,5 + 9 = ?,10,14,19,1476988603945,SP_production_timed,1040
0L7H5GGPaTOs5Q4qi9UBfapp6gM2,0,3.652,no_answer,0,6,7,4,6 + 7 = ?,9,13,20,1476988603945,SP_production_timed,1041
0L7H5GGPaTOs5Q4qi9UBfapp6gM2,0,3.552,no_answer,0,2,7,4,2 + 7 = ?,4,9,22,1476988603945,SP_production_timed,1043
0L7H5GGPaTOs5Q4qi9UBfapp6gM2,1,3.233,9,0,2,7,5,2 + 7 = ?,4,9,23,1476988603945,SP_production_timed,1044
0L7H5GGPaTOs5Q4qi9UBfapp6gM2,1,2.296,8,0,3,5,6,3 + 5 = ?,3,8,24,1476988603945,SP_production_timed,1045
0L7H5GGPaTOs5Q4qi9UBfapp6gM2,0,4.018,no_answer,0,7,8,5,7 + 8 = ?,11,15,25,1476988603945,SP_production_timed,1046
0L7H5GGPaTOs5Q4qi9UBfapp6gM2,1,2.446,15,0,7,8,6,7 + 8 = ?,11,15,26,1476988603945,SP_production_timed,1047
0L7H5GGPaTOs5Q4qi9UBfapp6gM2,0,3.075,15,0,8,9,5,8 + 9 = ?,12,17,27,1476988603945,SP_production_timed,1048
0L7H5GGPaTOs5Q4qi9UBfapp6gM2,0,2.729,17,0,5,9,2,5 + 9 = ?,10,14,30,1476988603945,SP_production_timed,1051
0L7H5GGPaTOs5Q4qi9UBfapp6gM2,1,2.157,10,0,2,8,3,2 + 8 = ?,5,10,33,1476988603945,SP_production_timed,1054
0L7H5GGPaTOs5Q4qi9UBfapp6gM2,1,2.183,12,0,4,8,4,4 + 8 = ?,8,12,34,1476988603945,SP_production_timed,1055
0L7H5GGPaTOs5Q4qi9UBfapp6gM2,1,1.881,12,0,3,9,4,3 + 9 = ?,7,12,36,1476988603945,SP_production_timed,1057
0L7H5GGPaTOs5Q4qi9UBfapp6gM2,1,2.28,10,0,4,6,8,4 + 6 = ?,6,10,39,1476988603945,SP_production_timed,1060
0L7H5GGPaTOs5Q4qi9UBfapp6gM2,1,1.41,17,1,8,9,8,8 + 9 = ?,12,17,41,1476988603945,SP_production_timed,1062
0L7H5GGPaTOs5Q4qi9UBfapp6gM2,1,3.194,7,0,3,4,2,3 + 4 = ?,2,7,2,1476987718362,SP_production,1091
0L7H5GGPaTOs5Q4qi9UBfapp6gM2,1,3.846,12,0,4,8,4,4 + 8 = ?,8,12,3,1476987718362,SP_production,1092
0L7H5GGPaTOs5Q4qi9UBfapp6gM2,1,4.397,12,0,3,9,6,3 + 9 = ?,7,12,5,1476987718362,SP_production,1094
0L7H5GGPaTOs5Q4qi9UBfapp6gM2,1,2.857,5,0,2,3,7,2 + 3 = ?,1,5,6,1476987718362,SP_production,1095
0L7H5GGPaTOs5Q4qi9UBfapp6gM2,1,5.536,13,0,6,7,11,6 + 7 = ?,9,13,9,1476987718362,SP_production,1098
0L7H5GGPaTOs5Q4qi9UBfapp6gM2,1,4.047,8,0,3,5,12,3 + 5 = ?,3,8,10,1476987718362,SP_production,1099
0L7H5GGPaTOs5Q4qi9UBfapp6gM2,1,4.681,10,0,4,6,14,4 + 6 = ?,6,10,12,1476987718362,SP_production,1101
0L7H5GGPaTOs5Q4qi9UBfapp6gM2,1,3.78,12,0,3,9,15,3 + 9 = ?,7,12,13,1476987718362,SP_production,1102
0L7H5GGPaTOs5Q4qi9UBfapp6gM2,1,4.682,17,0,8,9,16,8 + 9 = ?,12,17,14,1476987718362,SP_production,1103
0L7H5GGPaTOs5Q4qi9UBfapp6gM2,1,2.747,10,0,4,6,18,4 + 6 = ?,6,10,15,1476987718362,SP_production,1104
0L7H5GGPaTOs5Q4qi9UBfapp6gM2,1,4.162,7,0,3,4,19,3 + 4 = ?,2,7,16,1476987718362,SP_production,1105
0L7H5GGPaTOs5Q4qi9UBfapp6gM2,1,3.78,8,0,3,5,20,3 + 5 = ?,3,8,17,1476987718362,SP_production,1106
0L7H5GGPaTOs5Q4qi9UBfapp6gM2,1,3.813,14,0,5,9,22,5 + 9 = ?,10,14,19,1476987718362,SP_production,1108
0L7H5GGPaTOs5Q4qi9UBfapp6gM2,1,2.397,5,0,2,3,25,2 + 3 = ?,1,5,22,1476987718362,SP_production,1111
0L7H5GGPaTOs5Q4qi9UBfapp6gM2,1,5.057,6,0,4,2,1,4 + 2 = ?,1,6,1,1476989255030,VS_production,1063
0L7H5GGPaTOs5Q4qi9UBfapp6gM2,1,5.821,13,0,9,4,4,9 + 4 = ?,8,13,3,1476989255030,VS_production,1065
0L7H5GGPaTOs5Q4qi9UBfapp6gM2,1,3.978,7,0,5,2,5,5 + 2 = ?,2,7,4,1476989255030,VS_production,1066
0L7H5GGPaTOs5Q4qi9UBfapp6gM2,0,5.455,11,0,7,3,4,7 + 3 = ?,6,10,5,1476989255030,VS_production,1067
0L7H5GGPaTOs5Q4qi9UBfapp6gM2,1,5.695,10,0,7,3,5,7 + 3 = ?,6,10,6,1476989255030,VS_production,1068
0L7H5GGPaTOs5Q4qi9UBfapp6gM2,1,5.439,8,0,6,2,6,6 + 2 = ?,3,8,7,1476989255030,VS_production,1069
0L7H5GGPaTOs5Q4qi9UBfapp6gM2,1,14.504,13,0,8,5,7,8 + 5 = ?,9,13,8,1476989255030,VS_production,1070
0L7H5GGPaTOs5Q4qi9UBfapp6gM2,1,3.438,9,0,5,4,9,5 + 4 = ?,5,9,9,1476989255030,VS_production,1071
0L7H5GGPaTOs5Q4qi9UBfapp6gM2,1,10.494,14,0,8,6,10,8 + 6 = ?,10,14,10,1476989255030,VS_production,1072
0L7H5GGPaTOs5Q4qi9UBfapp6gM2,1,8.987,9,0,6,3,11,6 + 3 = ?,4,9,11,1476989255030,VS_production,1073
0L7H5GGPaTOs5Q4qi9UBfapp6gM2,1,8.634,16,0,9,7,12,9 + 7 = ?,12,16,12,1476989255030,VS_production,1074
0L7H5GGPaTOs5Q4qi9UBfapp6gM2,1,9.066,15,0,9,6,14,9 + 6 = ?,11,15,13,1476989255030,VS_production,1075
0L7H5GGPaTOs5Q4qi9UBfapp6gM2,0,11.86,19,0,7,5,13,7 + 5 = ?,7,12,14,1476989255030,VS_production,1076
0L7H5GGPaTOs5Q4qi9UBfapp6gM2,1,7.051,12,0,7,5,14,7 + 5 = ?,7,12,15,1476989255030,VS_production,1077
0L7H5GGPaTOs5Q4qi9UBfapp6gM2,1,6.968,14,0,8,6,15,8 + 6 = ?,10,14,16,1476989255030,VS_production,1078
0L7H5GGPaTOs5Q4qi9UBfapp6gM2,1,5.851,7,0,5,2,16,5 + 2 = ?,2,7,17,1476989255030,VS_production,1079
0L7H5GGPaTOs5Q4qi9UBfapp6gM2,1,5.858,8,0,6,2,18,6 + 2 = ?,3,8,18,1476989255030,VS_production,1080
0L7H5GGPaTOs5Q4qi9UBfapp6gM2,1,3.052,6,0,4,2,19,4 + 2 = ?,1,6,19,1476989255030,VS_production,1081
0L7H5GGPaTOs5Q4qi9UBfapp6gM2,1,7.96,13,0,9,4,20,9 + 4 = ?,8,13,20,1476989255030,VS_production,1082
0L7H5GGPaTOs5Q4qi9UBfapp6gM2,1,5.886,9,0,5,4,23,5 + 4 = ?,5,9,22,1476989255030,VS_production,1084
0L7H5GGPaTOs5Q4qi9UBfapp6gM2,1,5.342,10,0,7,3,24,7 + 3 = ?,6,10,23,1476989255030,VS_production,1085
0L7H5GGPaTOs5Q4qi9UBfapp6gM2,1,8.027,15,0,9,6,25,9 + 6 = ?,11,15,24,1476989255030,VS_production,1086
0L7H5GGPaTOs5Q4qi9UBfapp6gM2,0,3.973,10,0,6,3,25,6 + 3 = ?,4,9,26,1476989255030,VS_production,1088
0L7H5GGPaTOs5Q4qi9UBfapp6gM2,1,2.192,9,1,6,3,26,6 + 3 = ?,4,9,27,1476989255030,VS_production,1089
0L7H5GGPaTOs5Q4qi9UBfapp6gM2,0,3.915,no_answer,0,7,8,0,7 + ? = 15,11,15,1,1476988818143,SP_missing_timed,1160
0L7H5GGPaTOs5Q4qi9UBfapp6gM2,0,2.769,3,0,7,8,0,7 + ? = 15,11,15,2,1476988818143,SP_missing_timed,1161
0L7H5GGPaTOs5Q4qi9UBfapp6gM2,0,2.854,4,0,7,8,0,7 + ? = 15,11,15,3,1476988818143,SP_missing_timed,1162
0L7H5GGPaTOs5Q4qi9UBfapp6gM2,0,3.296,7,0,3,4,0,3 + ? = 7,2,7,4,1476988818143,SP_missing_timed,1163
0L7H5GGPaTOs5Q4qi9UBfapp6gM2,1,3.792,4,0,3,4,1,3 + ? = 7,2,7,5,1476988818143,SP_missing_timed,1164
0L7H5GGPaTOs5Q4qi9UBfapp6gM2,1,3.6,5,0,3,5,2,3 + ? = 8,3,8,6,1476988818143,SP_missing_timed,1165
0L7H5GGPaTOs5Q4qi9UBfapp6gM2,1,2.665,8,0,4,8,3,4 + ? = 12,8,12,7,1476988818143,SP_missing_timed,1166
0L7H5GGPaTOs5Q4qi9UBfapp6gM2,0,3.501,no_answer,0,5,9,2,5 + ? = 14,10,14,8,1476988818143,SP_missing_timed,1167
0L7H5GGPaTOs5Q4qi9UBfapp6gM2,1,1.926,9,0,5,9,2,5 + ? = 14,10,14,10,1476988818143,SP_missing_timed,1169
0L7H5GGPaTOs5Q4qi9UBfapp6gM2,1,2.583,3,0,2,3,3,2 + ? = 5,1,5,11,1476988818143,SP_missing_timed,1170
0L7H5GGPaTOs5Q4qi9UBfapp6gM2,0,3.502,no_answer,0,2,8,2,2 + ? = 10,5,10,12,1476988818143,SP_missing_timed,1171
0L7H5GGPaTOs5Q4qi9UBfapp6gM2,1,1.08,8,0,2,8,3,2 + ? = 10,5,10,13,1476988818143,SP_missing_timed,1172
0L7H5GGPaTOs5Q4qi9UBfapp6gM2,0,3.502,no_answer,0,6,7,2,6 + ? = 13,9,13,14,1476988818143,SP_missing_timed,1173
0L7H5GGPaTOs5Q4qi9UBfapp6gM2,0,2.837,4,0,6,7,1,6 + ? = 13,9,13,15,1476988818143,SP_missing_timed,1174
0L7H5GGPaTOs5Q4qi9UBfapp6gM2,1,3.171,7,0,6,7,2,6 + ? = 13,9,13,16,1476988818143,SP_missing_timed,1175
0L7H5GGPaTOs5Q4qi9UBfapp6gM2,1,2.496,7,0,2,7,3,2 + ? = 9,4,9,17,1476988818143,SP_missing_timed,1176
0L7H5GGPaTOs5Q4qi9UBfapp6gM2,1,1.289,6,0,4,6,1,4 + ? = 10,6,10,22,1476988818143,SP_missing_timed,1181
0L7H5GGPaTOs5Q4qi9UBfapp6gM2,1,2.48,9,0,3,9,1,3 + ? = 12,7,12,24,1476988818143,SP_missing_timed,1183
0L7H5GGPaTOs5Q4qi9UBfapp6gM2,1,3.448,6,0,4,6,2,4 + ? = 10,6,10,27,1476988818143,SP_missing_timed,1186
0L7H5GGPaTOs5Q4qi9UBfapp6gM2,0,3.016,6,0,3,9,1,3 + ? = 12,7,12,28,1476988818143,SP_missing_timed,1187
0L7H5GGPaTOs5Q4qi9UBfapp6gM2,1,3.23,9,0,3,9,2,3 + ? = 12,7,12,29,1476988818143,SP_missing_timed,1188
0L7H5GGPaTOs5Q4qi9UBfapp6gM2,1,3.338,7,0,2,7,2,2 + ? = 9,4,9,33,1476988818143,SP_missing_timed,1192
0L7H5GGPaTOs5Q4qi9UBfapp6gM2,1,2.223,8,0,2,8,3,2 + ? = 10,5,10,34,1476988818143,SP_missing_timed,1193
0L7H5GGPaTOs5Q4qi9UBfapp6gM2,1,3.469,9,0,5,9,3,5 + ? = 14,10,14,36,1476988818143,SP_missing_timed,1195
0L7H5GGPaTOs5Q4qi9UBfapp6gM2,1,2.617,3,0,2,3,4,2 + ? = 5,1,5,37,1476988818143,SP_missing_timed,1196
0L7H5GGPaTOs5Q4qi9UBfapp6gM2,0,2.521,no_answer,0,6,7,2,6 + ? = 13,9,13,39,1476988818143,SP_missing_timed,1198
0L7H5GGPaTOs5Q4qi9UBfapp6gM2,1,2.524,8,0,4,8,4,4 + ? = 12,8,12,41,1476988818143,SP_missing_timed,1200
0L7H5GGPaTOs5Q4qi9UBfapp6gM2,1,1.118,5,0,3,5,4,3 + ? = 8,3,8,43,1476988818143,SP_missing_timed,1202
0L7H5GGPaTOs5Q4qi9UBfapp6gM2,0,3.181,5,0,8,9,2,8 + ? = 17,12,17,45,1476988818143,SP_missing_timed,1204
0L7H5GGPaTOs5Q4qi9UBfapp6gM2,0,0.849,no_answer,0,7,8,2,7 + ? = 15,11,15,47,1476988818143,SP_missing_timed,1206
0L7H5GGPaTOs5Q4qi9UBfapp6gM2,0,3.175,7,0,7,8,0,7 + ? = 15,11,15,49,1476988818143,SP_missing_timed,1208
0L7H5GGPaTOs5Q4qi9UBfapp6gM2,1,1.512,9,0,8,9,1,8 + ? = 17,12,17,52,1476988818143,SP_missing_timed,1211
0L7H5GGPaTOs5Q4qi9UBfapp6gM2,0,2.711,9,0,7,8,0,7 + ? = 15,11,15,53,1476988818143,SP_missing_timed,1212
0L7H5GGPaTOs5Q4qi9UBfapp6gM2,1,15.132,9,0,3,9,1,3 + ? = 12,7,12,1,1476987909915,SP_missing,1216
0L7H5GGPaTOs5Q4qi9UBfapp6gM2,1,4.614,6,0,4,6,2,4 + ? = 10,6,10,2,1476987909915,SP_missing,1217
0L7H5GGPaTOs5Q4qi9UBfapp6gM2,0,2.842,2,0,8,9,1,8 + ? = 17,12,17,3,1476987909915,SP_missing,1218
0L7H5GGPaTOs5Q4qi9UBfapp6gM2,0,16.899,7,0,8,9,0,8 + ? = 17,12,17,4,1476987909915,SP_missing,1219
0L7H5GGPaTOs5Q4qi9UBfapp6gM2,1,10.8,9,0,8,9,1,8 + ? = 17,12,17,5,1476987909915,SP_missing,1220
0L7H5GGPaTOs5Q4qi9UBfapp6gM2,1,26.93,8,0,7,8,2,7 + ? = 15,11,15,6,1476987909915,SP_missing,1221
0L7H5GGPaTOs5Q4qi9UBfapp6gM2,1,4.166,3,0,2,3,3,2 + ? = 5,1,5,7,1476987909915,SP_missing,1222
0L7H5GGPaTOs5Q4qi9UBfapp6gM2,1,2.73,8,0,2,8,5,2 + ? = 10,5,10,8,1476987909915,SP_missing,1223
0L7H5GGPaTOs5Q4qi9UBfapp6gM2,1,5.66,7,0,2,7,6,2 + ? = 9,4,9,9,1476987909915,SP_missing,1224
0L7H5GGPaTOs5Q4qi9UBfapp6gM2,1,7.206,8,0,4,8,7,4 + ? = 12,8,12,10,1476987909915,SP_missing,1225
0L7H5GGPaTOs5Q4qi9UBfapp6gM2,1,6.913,9,0,5,9,8,5 + ? = 14,10,14,11,1476987909915,SP_missing,1226
0L7H5GGPaTOs5Q4qi9UBfapp6gM2,1,9.379,5,0,3,5,10,3 + ? = 8,3,8,12,1476987909915,SP_missing,1227
0L7H5GGPaTOs5Q4qi9UBfapp6gM2,1,2.914,4,0,3,4,12,3 + ? = 7,2,7,14,1476987909915,SP_missing,1229
0L7H5GGPaTOs5Q4qi9UBfapp6gM2,1,8.297,9,0,5,9,13,5 + ? = 14,10,14,15,1476987909915,SP_missing,1230
0L7H5GGPaTOs5Q4qi9UBfapp6gM2,0,19.665,8,0,3,9,12,3 + ? = 12,7,12,16,1476987909915,SP_missing,1231
0L7H5GGPaTOs5Q4qi9UBfapp6gM2,1,7.267,9,0,3,9,12,3 + ? = 12,7,12,18,1476987909915,SP_missing,1233
0L7H5GGPaTOs5Q4qi9UBfapp6gM2,0,14.016,8,0,6,7,11,6 + ? = 13,9,13,19,1476987909915,SP_missing,1234
0L7H5GGPaTOs5Q4qi9UBfapp6gM2,0,12.746,8,0,6,7,10,6 + ? = 13,9,13,20,1476987909915,SP_missing,1235
0L7H5GGPaTOs5Q4qi9UBfapp6gM2,1,14.247,7,0,6,7,11,6 + ? = 13,9,13,21,1476987909915,SP_missing,1236
0L7H5GGPaTOs5Q4qi9UBfapp6gM2,1,4.566,3,0,2,3,12,2 + ? = 5,1,5,22,1476987909915,SP_missing,1237
0L7H5GGPaTOs5Q4qi9UBfapp6gM2,1,6.988,8,0,2,8,13,2 + ? = 10,5,10,23,1476987909915,SP_missing,1238
0L7H5GGPaTOs5Q4qi9UBfapp6gM2,1,3.113,4,0,3,4,15,3 + ? = 7,2,7,24,1476987909915,SP_missing,1239
0L7H5GGPaTOs5Q4qi9UBfapp6gM2,1,6.463,5,0,3,5,16,3 + ? = 8,3,8,25,1476987909915,SP_missing,1240
0L7H5GGPaTOs5Q4qi9UBfapp6gM2,1,3.213,8,0,4,8,18,4 + ? = 12,8,12,27,1476987909915,SP_missing,1242
0L7H5GGPaTOs5Q4qi9UBfapp6gM2,1,3.647,6,0,4,6,20,4 + ? = 10,6,10,28,1476987909915,SP_missing,1243
0L7H5GGPaTOs5Q4qi9UBfapp6gM2,1,17.116,9,0,8,9,21,8 + ? = 17,12,17,29,1476987909915,SP_missing,1244
0L7H5GGPaTOs5Q4qi9UBfapp6gM2,1,4.799,7,1,2,7,22,2 + ? = 9,4,9,30,1476987909915,SP_missing,1245
mgQjjlQTaGPjRsYYTQ0gCI8hcE42,1,5.614,7,0,9,7,0,9 + ? = 16,12,16,1,1476988860223,VS_missing,1270
mgQjjlQTaGPjRsYYTQ0gCI8hcE42,1,7.1,5,0,8,5,1,8 + ? = 13,9,13,2,1476988860223,VS_missing,1271
mgQjjlQTaGPjRsYYTQ0gCI8hcE42,1,8.01,3,0,6,3,2,6 + ? = 9,4,9,3,1476988860223,VS_missing,1272
mgQjjlQTaGPjRsYYTQ0gCI8hcE42,1,13.68,6,0,9,6,4,9 + ? = 15,11,15,4,1476988860223,VS_missing,1273
mgQjjlQTaGPjRsYYTQ0gCI8hcE42,1,7.164,4,0,5,4,5,5 + ? = 9,5,9,5,1476988860223,VS_missing,1274
mgQjjlQTaGPjRsYYTQ0gCI8hcE42,1,4.028,2,0,4,2,6,4 + ? = 6,1,6,6,1476988860223,VS_missing,1275
mgQjjlQTaGPjRsYYTQ0gCI8hcE42,0,5.355,16,0,8,6,10,8 + ? = 14,10,14,9,1476988860223,VS_missing,1278
mgQjjlQTaGPjRsYYTQ0gCI8hcE42,1,3.598,6,0,8,6,9,8 + ? = 14,10,14,10,1476988860223,VS_missing,1279
mgQjjlQTaGPjRsYYTQ0gCI8hcE42,1,9.1,5,0,7,5,10,7 + ? = 12,7,12,11,1476988860223,VS_missing,1280
mgQjjlQTaGPjRsYYTQ0gCI8hcE42,0,8.96,5,0,9,4,11,9 + ? = 13,8,13,12,1476988860223,VS_missing,1281
mgQjjlQTaGPjRsYYTQ0gCI8hcE42,1,7.26,4,0,9,4,10,9 + ? = 13,8,13,13,1476988860223,VS_missing,1282
mgQjjlQTaGPjRsYYTQ0gCI8hcE42,1,7.74,2,0,6,2,11,6 + ? = 8,3,8,14,1476988860223,VS_missing,1283
mgQjjlQTaGPjRsYYTQ0gCI8hcE42,0,6.2,8,0,8,6,12,8 + ? = 14,10,14,15,1476988860223,VS_missing,1284
mgQjjlQTaGPjRsYYTQ0gCI8hcE42,1,3.632,6,0,8,6,11,8 + ? = 14,10,14,16,1476988860223,VS_missing,1285
mgQjjlQTaGPjRsYYTQ0gCI8hcE42,1,4.932,5,0,7,5,12,7 + ? = 12,7,12,17,1476988860223,VS_missing,1286
mgQjjlQTaGPjRsYYTQ0gCI8hcE42,1,6.976,3,0,6,3,14,6 + ? = 9,4,9,19,1476988860223,VS_missing,1288
mgQjjlQTaGPjRsYYTQ0gCI8hcE42,1,4.14,4,0,9,4,16,9 + ? = 13,8,13,20,1476988860223,VS_missing,1289
mgQjjlQTaGPjRsYYTQ0gCI8hcE42,1,2.898,5,0,8,5,17,8 + ? = 13,9,13,21,1476988860223,VS_missing,1290
mgQjjlQTaGPjRsYYTQ0gCI8hcE42,1,3.978,3,0,7,3,18,7 + ? = 10,6,10,22,1476988860223,VS_missing,1291
mgQjjlQTaGPjRsYYTQ0gCI8hcE42,1,7.0,2,0,6,2,21,6 + ? = 8,3,8,24,1476988860223,VS_missing,1293
mgQjjlQTaGPjRsYYTQ0gCI8hcE42,1,6.7,4,0,5,4,22,5 + ? = 9,5,9,25,1476988860223,VS_missing,1294
mgQjjlQTaGPjRsYYTQ0gCI8hcE42,1,4.284,2,1,5,2,24,5 + ? = 7,2,7,27,1476988860223,VS_missing,1296
mgQjjlQTaGPjRsYYTQ0gCI8hcE42,1,1.335,0,0,6,3,1,6 + 3 = 9,4,9,1,1476988401188,SP_verification_timed,1246
mgQjjlQTaGPjRsYYTQ0gCI8hcE42,1,1.091,0,0,8,6,2,8 + 6 = 14,10,14,2,1476988401188,SP_verification_timed,1247
mgQjjlQTaGPjRsYYTQ0gCI8hcE42,1,1.455,1,0,7,5,4,7 + 5 = 10,7,12,3,1476988401188,SP_verification_timed,1248
mgQjjlQTaGPjRsYYTQ0gCI8hcE42,1,1.598,0,0,9,4,5,9 + 4 = 13,8,13,4,1476988401188,SP_verification_timed,1249
mgQjjlQTaGPjRsYYTQ0gCI8hcE42,1,2.084,0,0,6,2,6,6 + 2 = 8,3,8,5,1476988401188,SP_verification_timed,1250
mgQjjlQTaGPjRsYYTQ0gCI8hcE42,1,1.458,1,0,7,3,7,7 + 3 = 12,6,10,6,1476988401188,SP_verification_timed,1251
mgQjjlQTaGPjRsYYTQ0gCI8hcE42,1,1.608,0,0,4,2,9,4 + 2 = 6,1,6,7,1476988401188,SP_verification_timed,1252
mgQjjlQTaGPjRsYYTQ0gCI8hcE42,1,1.726,0,0,5,4,10,5 + 4 = 9,5,9,8,1476988401188,SP_verification_timed,1253
mgQjjlQTaGPjRsYYTQ0gCI8hcE42,1,2.138,1,0,8,5,11,8 + 5 = 12,9,13,9,1476988401188,SP_verification_timed,1254
mgQjjlQTaGPjRsYYTQ0gCI8hcE42,1,1.108,0,0,9,7,12,9 + 7 = 16,12,16,10,1476988401188,SP_verification_timed,1255
mgQjjlQTaGPjRsYYTQ0gCI8hcE42,1,1.091,1,0,9,6,13,9 + 6 = 11,11,15,11,1476988401188,SP_verification_timed,1256
mgQjjlQTaGPjRsYYTQ0gCI8hcE42,1,1.281,0,0,5,2,14,5 + 2 = 7,2,7,12,1476988401188,SP_verification_timed,1257
mgQjjlQTaGPjRsYYTQ0gCI8hcE42,1,2.131,1,0,5,2,15,5 + 2 = 6,2,7,13,1476988401188,SP_verification_timed,1258
mgQjjlQTaGPjRsYYTQ0gCI8hcE42,1,1.585,1,0,6,3,16,6 + 3 = 10,4,9,14,1476988401188,SP_verification_timed,1259
mgQjjlQTaGPjRsYYTQ0gCI8hcE42,1,1.212,0,0,8,5,18,8 + 5 = 13,9,13,15,1476988401188,SP_verification_timed,1260
mgQjjlQTaGPjRsYYTQ0gCI8hcE42,1,1.294,1,0,7,5,19,7 + 5 = 11,7,12,16,1476988401188,SP_verification_timed,1261
mgQjjlQTaGPjRsYYTQ0gCI8hcE42,1,1.448,1,0,5,4,20,5 + 4 = 10,5,9,17,1476988401188,SP_verification_timed,1262
mgQjjlQTaGPjRsYYTQ0gCI8hcE42,1,1.56,0,0,9,4,21,9 + 4 = 13,8,13,18,1476988401188,SP_verification_timed,1263
mgQjjlQTaGPjRsYYTQ0gCI8hcE42,1,1.208,1,0,9,7,22,9 + 7 = 18,12,16,19,1476988401188,SP_verification_timed,1264
mgQjjlQTaGPjRsYYTQ0gCI8hcE42,1,1.861,1,0,9,4,1,9 + 4 = 16,8,13,1,1476988011290,SP_verification,1376
mgQjjlQTaGPjRsYYTQ0gCI8hcE42,1,2.174,0,0,9,7,2,9 + 7 = 16,12,16,2,1476988011290,SP_verification,1377
mgQjjlQTaGPjRsYYTQ0gCI8hcE42,1,3.723,0,0,4,2,4,4 + 2 = 6,1,6,3,1476988011290,SP_verification,1378
mgQjjlQTaGPjRsYYTQ0gCI8hcE42,1,2.168,1,0,8,5,5,8 + 5 = 9,9,13,4,1476988011290,SP_verification,1379
mgQjjlQTaGPjRsYYTQ0gCI8hcE42,1,3.174,1,0,5,2,6,5 + 2 = 6,2,7,5,1476988011290,SP_verification,1380
mgQjjlQTaGPjRsYYTQ0gCI8hcE42,1,2.176,0,0,9,6,10,9 + 6 = 15,11,15,8,1476988011290,SP_verification,1383
mgQjjlQTaGPjRsYYTQ0gCI8hcE42,1,1.189,1,0,7,3,11,7 + 3 = 11,6,10,9,1476988011290,SP_verification,1384
mgQjjlQTaGPjRsYYTQ0gCI8hcE42,0,1.219,1,0,7,5,10,7 + 5 = 12,7,12,10,1476988011290,SP_verification,1385
mgQjjlQTaGPjRsYYTQ0gCI8hcE42,1,1.987,1,0,5,4,11,5 + 4 = 12,5,9,11,1476988011290,SP_verification,1386
mgQjjlQTaGPjRsYYTQ0gCI8hcE42,1,1.511,1,0,8,6,12,8 + 6 = 12,10,14,12,1476988011290,SP_verification,1387
mgQjjlQTaGPjRsYYTQ0gCI8hcE42,1,1.692,0,0,5,2,13,5 + 2 = 7,2,7,13,1476988011290,SP_verification,1388
mgQjjlQTaGPjRsYYTQ0gCI8hcE42,1,1.58,1,0,4,2,16,4 + 2 = 7,1,6,15,1476988011290,SP_verification,1390
mgQjjlQTaGPjRsYYTQ0gCI8hcE42,0,0.892,1,0,8,5,15,8 + 5 = 13,9,13,16,1476988011290,SP_verification,1391
mgQjjlQTaGPjRsYYTQ0gCI8hcE42,0,0.593,0,0,9,4,14,9 + 4 = 18,8,13,17,1476988011290,SP_verification,1392
mgQjjlQTaGPjRsYYTQ0gCI8hcE42,1,1.296,0,0,9,7,15,9 + 7 = 16,12,16,18,1476988011290,SP_verification,1393
mgQjjlQTaGPjRsYYTQ0gCI8hcE42,1,1.427,0,0,7,3,16,7 + 3 = 10,6,10,19,1476988011290,SP_verification,1394
mgQjjlQTaGPjRsYYTQ0gCI8hcE42,1,1.112,1,0,6,3,17,6 + 3 = 10,4,9,20,1476988011290,SP_verification,1395
mgQjjlQTaGPjRsYYTQ0gCI8hcE42,0,1.297,1,0,7,5,18,7 + 5 = 12,7,12,22,1476988011290,SP_verification,1397
mgQjjlQTaGPjRsYYTQ0gCI8hcE42,1,1.827,0,0,8,6,19,8 + 6 = 14,10,14,23,1476988011290,SP_verification,1398
mgQjjlQTaGPjRsYYTQ0gCI8hcE42,1,2.195,1,0,6,2,20,6 + 2 = 7,3,8,24,1476988011290,SP_verification,1399
mgQjjlQTaGPjRsYYTQ0gCI8hcE42,1,1.379,0,0,8,5,23,8 + 5 = 13,9,13,26,1476988011290,SP_verification,1401
mgQjjlQTaGPjRsYYTQ0gCI8hcE42,1,1.562,1,0,9,4,24,9 + 4 = 15,8,13,27,1476988011290,SP_verification,1402
mgQjjlQTaGPjRsYYTQ0gCI8hcE42,1,1.217,0,1,7,5,25,7 + 5 = 12,7,12,28,1476988011290,SP_verification,1403
mgQjjlQTaGPjRsYYTQ0gCI8hcE42,1,8.995,0,0,3,9,1,3 + 9 = 12,7,12,1,1476989280422,VS_verification,1435
mgQjjlQTaGPjRsYYTQ0gCI8hcE42,0,1.039,1,0,7,8,0,7 + 8 = 15,11,15,2,1476989280422,VS_verification,1436
mgQjjlQTaGPjRsYYTQ0gCI8hcE42,0,2.682,0,0,6,7,0,6 + 7 = 12,9,13,3,1476989280422,VS_verification,1437
mgQjjlQTaGPjRsYYTQ0gCI8hcE42,0,1.017,1,0,4,8,0,4 + 8 = 12,8,12,4,1476989280422,VS_verification,1438
mgQjjlQTaGPjRsYYTQ0gCI8hcE42,1,4.051,1,0,2,3,1,2 + 3 = 1,1,5,5,1476989280422,VS_verification,1439
mgQjjlQTaGPjRsYYTQ0gCI8hcE42,1,10.493,0,0,8,9,2,8 + 9 = 17,12,17,6,1476989280422,VS_verification,1440
mgQjjlQTaGPjRsYYTQ0gCI8hcE42,1,7.956,1,0,2,7,3,2 + 7 = 5,4,9,7,1476989280422,VS_verification,1441
mgQjjlQTaGPjRsYYTQ0gCI8hcE42,0,1.754,0,0,5,9,2,5 + 9 = 10,10,14,8,1476989280422,VS_verification,1442
mgQjjlQTaGPjRsYYTQ0gCI8hcE42,1,9.188,0,0,3,4,3,3 + 4 = 7,2,7,9,1476989280422,VS_verification,1443
mgQjjlQTaGPjRsYYTQ0gCI8hcE42,0,6.482,0,0,2,8,2,2 + 8 = 11,5,10,10,1476989280422,VS_verification,1444
mgQjjlQTaGPjRsYYTQ0gCI8hcE42,1,7.351,1,0,4,6,3,4 + 6 = 13,6,10,11,1476989280422,VS_verification,1445
mgQjjlQTaGPjRsYYTQ0gCI8hcE42,1,9.462,0,0,3,5,4,3 + 5 = 8,3,8,12,1476989280422,VS_verification,1446
mgQjjlQTaGPjRsYYTQ0gCI8hcE42,1,9.349,0,0,7,8,5,7 + 8 = 15,11,15,13,1476989280422,VS_verification,1447
mgQjjlQTaGPjRsYYTQ0gCI8hcE42,1,5.691,1,0,2,3,7,2 + 3 = 4,1,5,14,1476989280422,VS_verification,1448
mgQjjlQTaGPjRsYYTQ0gCI8hcE42,1,10.764,1,0,3,5,8,3 + 5 = 9,3,8,15,1476989280422,VS_verification,1449
mgQjjlQTaGPjRsYYTQ0gCI8hcE42,0,4.918,1,0,2,8,7,2 + 8 = 10,5,10,16,1476989280422,VS_verification,1450
mgQjjlQTaGPjRsYYTQ0gCI8hcE42,1,8.462,0,0,3,9,8,3 + 9 = 12,7,12,17,1476989280422,VS_verification,1451
mgQjjlQTaGPjRsYYTQ0gCI8hcE42,1,11.911,1,0,4,6,9,4 + 6 = 11,6,10,18,1476989280422,VS_verification,1452
mgQjjlQTaGPjRsYYTQ0gCI8hcE42,1,6.544,0,0,4,8,12,4 + 8 = 12,8,12,20,1476989280422,VS_verification,1454
mgQjjlQTaGPjRsYYTQ0gCI8hcE42,1,6.61,0,0,2,7,14,2 + 7 = 9,4,9,22,1476989280422,VS_verification,1456
mgQjjlQTaGPjRsYYTQ0gCI8hcE42,0,7.402,1,0,6,7,14,6 + 7 = 13,9,13,26,1476989280422,VS_verification,1460
mgQjjlQTaGPjRsYYTQ0gCI8hcE42,1,9.327,1,0,4,8,15,4 + 8 = 10,8,12,27,1476989280422,VS_verification,1461
mgQjjlQTaGPjRsYYTQ0gCI8hcE42,0,6.571,1,0,5,9,14,5 + 9 = 14,10,14,28,1476989280422,VS_verification,1462
mgQjjlQTaGPjRsYYTQ0gCI8hcE42,0,3.361,0,0,2,8,13,2 + 8 = 8,5,10,29,1476989280422,VS_verification,1463
mgQjjlQTaGPjRsYYTQ0gCI8hcE42,1,2.487,0,0,2,8,14,2 + 8 = 10,5,10,30,1476989280422,VS_verification,1464
mgQjjlQTaGPjRsYYTQ0gCI8hcE42,1,1.519,1,0,6,7,15,6 + 7 = 11,9,13,31,1476989280422,VS_verification,1465
mgQjjlQTaGPjRsYYTQ0gCI8hcE42,0,1.253,0,0,6,7,14,6 + 7 = 14,9,13,32,1476989280422,VS_verification,1466
mgQjjlQTaGPjRsYYTQ0gCI8hcE42,1,0.787,1,0,5,9,15,5 + 9 = 12,10,14,33,1476989280422,VS_verification,1467
mgQjjlQTaGPjRsYYTQ0gCI8hcE42,0,4.48,1,0,2,8,14,2 + 8 = 10,5,10,34,1476989280422,VS_verification,1468
mgQjjlQTaGPjRsYYTQ0gCI8hcE42,0,1.354,0,0,6,7,13,6 + 7 = 16,9,13,35,1476989280422,VS_verification,1469
mgQjjlQTaGPjRsYYTQ0gCI8hcE42,1,1.785,7,0,3,4,1,3 + 4 = ?,2,7,2,1476988142011,SP_production_timed,1298
mgQjjlQTaGPjRsYYTQ0gCI8hcE42,1,2.332,8,0,3,5,2,3 + 5 = ?,3,8,3,1476988142011,SP_production_timed,1299
mgQjjlQTaGPjRsYYTQ0gCI8hcE42,1,2.213,5,0,2,3,5,2 + 3 = ?,1,5,5,1476988142011,SP_production_timed,1301
mgQjjlQTaGPjRsYYTQ0gCI8hcE42,0,2.694,17,0,5,9,4,5 + 9 = ?,10,14,6,1476988142011,SP_production_timed,1302
mgQjjlQTaGPjRsYYTQ0gCI8hcE42,1,1.478,14,0,5,9,5,5 + 9 = ?,10,14,7,1476988142011,SP_production_timed,1303
mgQjjlQTaGPjRsYYTQ0gCI8hcE42,1,2.16,15,0,7,8,6,7 + 8 = ?,11,15,8,1476988142011,SP_production_timed,1304
mgQjjlQTaGPjRsYYTQ0gCI8hcE42,1,2.791,9,0,2,7,7,2 + 7 = ?,4,9,9,1476988142011,SP_production_timed,1305
mgQjjlQTaGPjRsYYTQ0gCI8hcE42,1,2.305,12,0,3,9,9,3 + 9 = ?,7,12,10,1476988142011,SP_production_timed,1306
mgQjjlQTaGPjRsYYTQ0gCI8hcE42,1,1.889,12,0,4,8,10,4 + 8 = ?,8,12,11,1476988142011,SP_production_timed,1307
mgQjjlQTaGPjRsYYTQ0gCI8hcE42,1,2.179,10,0,4,6,11,4 + 6 = ?,6,10,12,1476988142011,SP_production_timed,1308
mgQjjlQTaGPjRsYYTQ0gCI8hcE42,1,2.011,17,0,8,9,12,8 + 9 = ?,12,17,13,1476988142011,SP_production_timed,1309
mgQjjlQTaGPjRsYYTQ0gCI8hcE42,1,2.686,13,0,6,7,14,6 + 7 = ?,9,13,14,1476988142011,SP_production_timed,1310
mgQjjlQTaGPjRsYYTQ0gCI8hcE42,1,2.166,13,0,6,7,15,6 + 7 = ?,9,13,15,1476988142011,SP_production_timed,1311
mgQjjlQTaGPjRsYYTQ0gCI8hcE42,1,1.617,12,0,4,8,15,4 + 8 = ?,8,12,17,1476988142011,SP_production_timed,1313
mgQjjlQTaGPjRsYYTQ0gCI8hcE42,1,3.068,10,0,2,8,16,2 + 8 = ?,5,10,18,1476988142011,SP_production_timed,1314
mgQjjlQTaGPjRsYYTQ0gCI8hcE42,1,2.449,14,0,5,9,17,5 + 9 = ?,10,14,19,1476988142011,SP_production_timed,1315
mgQjjlQTaGPjRsYYTQ0gCI8hcE42,0,2.726,10,0,8,9,16,8 + 9 = ?,12,17,20,1476988142011,SP_production_timed,1316
mgQjjlQTaGPjRsYYTQ0gCI8hcE42,0,1.064,no_answer,0,4,6,16,4 + 6 = ?,6,10,22,1476988142011,SP_production_timed,1318
mgQjjlQTaGPjRsYYTQ0gCI8hcE42,1,2.582,10,0,4,6,17,4 + 6 = ?,6,10,23,1476988142011,SP_production_timed,1319
mgQjjlQTaGPjRsYYTQ0gCI8hcE42,1,1.693,5,0,2,3,18,2 + 3 = ?,1,5,24,1476988142011,SP_production_timed,1320
mgQjjlQTaGPjRsYYTQ0gCI8hcE42,1,2.131,12,0,3,9,19,3 + 9 = ?,7,12,25,1476988142011,SP_production_timed,1321
mgQjjlQTaGPjRsYYTQ0gCI8hcE42,1,2.134,8,0,3,5,21,3 + 5 = ?,3,8,26,1476988142011,SP_production_timed,1322
mgQjjlQTaGPjRsYYTQ0gCI8hcE42,1,2.232,7,0,3,4,22,3 + 4 = ?,2,7,27,1476988142011,SP_production_timed,1323
mgQjjlQTaGPjRsYYTQ0gCI8hcE42,1,1.861,15,0,7,8,23,7 + 8 = ?,11,15,28,1476988142011,SP_production_timed,1324
mgQjjlQTaGPjRsYYTQ0gCI8hcE42,1,4.975,13,0,6,7,1,6 + 7 = ?,9,13,1,1476987613578,SP_production,1352
mgQjjlQTaGPjRsYYTQ0gCI8hcE42,1,4.244,17,0,8,9,2,8 + 9 = ?,12,17,2,1476987613578,SP_production,1353
mgQjjlQTaGPjRsYYTQ0gCI8hcE42,1,3.55,9,0,2,7,4,2 + 7 = ?,4,9,3,1476987613578,SP_production,1354
mgQjjlQTaGPjRsYYTQ0gCI8hcE42,1,2.43,8,0,3,5,5,3 + 5 = ?,3,8,4,1476987613578,SP_production,1355
mgQjjlQTaGPjRsYYTQ0gCI8hcE42,1,1.914,12,0,3,9,6,3 + 9 = ?,7,12,5,1476987613578,SP_production,1356
mgQjjlQTaGPjRsYYTQ0gCI8hcE42,1,3.214,7,0,3,4,7,3 + 4 = ?,2,7,6,1476987613578,SP_production,1357
mgQjjlQTaGPjRsYYTQ0gCI8hcE42,1,2.729,12,0,4,8,9,4 + 8 = ?,8,12,7,1476987613578,SP_production,1358
mgQjjlQTaGPjRsYYTQ0gCI8hcE42,1,3.174,10,0,4,6,10,4 + 6 = ?,6,10,8,1476987613578,SP_production,1359
mgQjjlQTaGPjRsYYTQ0gCI8hcE42,1,2.216,5,0,2,3,11,2 + 3 = ?,1,5,9,1476987613578,SP_production,1360
mgQjjlQTaGPjRsYYTQ0gCI8hcE42,1,4.262,10,0,2,8,12,2 + 8 = ?,5,10,10,1476987613578,SP_production,1361
mgQjjlQTaGPjRsYYTQ0gCI8hcE42,1,4.083,14,0,5,9,13,5 + 9 = ?,10,14,11,1476987613578,SP_production,1362
mgQjjlQTaGPjRsYYTQ0gCI8hcE42,1,3.778,15,0,7,8,14,7 + 8 = ?,11,15,12,1476987613578,SP_production,1363
mgQjjlQTaGPjRsYYTQ0gCI8hcE42,1,4.793,14,0,5,9,18,5 + 9 = ?,10,14,15,1476987613578,SP_production,1366
mgQjjlQTaGPjRsYYTQ0gCI8hcE42,1,4.497,17,0,8,9,20,8 + 9 = ?,12,17,17,1476987613578,SP_production,1368
mgQjjlQTaGPjRsYYTQ0gCI8hcE42,1,4.049,13,0,6,7,21,6 + 7 = ?,9,13,18,1476987613578,SP_production,1369
mgQjjlQTaGPjRsYYTQ0gCI8hcE42,1,3.956,10,0,4,6,22,4 + 6 = ?,6,10,19,1476987613578,SP_production,1370
mgQjjlQTaGPjRsYYTQ0gCI8hcE42,1,1.899,7,0,3,4,23,3 + 4 = ?,2,7,20,1476987613578,SP_production,1371
mgQjjlQTaGPjRsYYTQ0gCI8hcE42,1,4.392,12,0,4,8,24,4 + 8 = ?,8,12,21,1476987613578,SP_production,1372
mgQjjlQTaGPjRsYYTQ0gCI8hcE42,1,6.021,14,0,8,6,1,8 + 6 = ?,10,14,1,1476988503651,VS_production,1327
mgQjjlQTaGPjRsYYTQ0gCI8hcE42,1,7.472,8,0,6,2,2,6 + 2 = ?,3,8,2,1476988503651,VS_production,1328
mgQjjlQTaGPjRsYYTQ0gCI8hcE42,0,7.562,10,0,5,2,1,5 + 2 = ?,2,7,3,1476988503651,VS_production,1329
mgQjjlQTaGPjRsYYTQ0gCI8hcE42,1,3.486,7,0,5,2,2,5 + 2 = ?,2,7,4,1476988503651,VS_production,1330
mgQjjlQTaGPjRsYYTQ0gCI8hcE42,1,18.025,13,0,8,5,3,8 + 5 = ?,9,13,5,1476988503651,VS_production,1331
mgQjjlQTaGPjRsYYTQ0gCI8hcE42,1,7.063,9,0,6,3,4,6 + 3 = ?,4,9,6,1476988503651,VS_production,1332
mgQjjlQTaGPjRsYYTQ0gCI8hcE42,1,9.758,13,0,9,4,6,9 + 4 = ?,8,13,7,1476988503651,VS_production,1333
mgQjjlQTaGPjRsYYTQ0gCI8hcE42,1,6.375,15,0,9,6,7,9 + 6 = ?,11,15,8,1476988503651,VS_production,1334
mgQjjlQTaGPjRsYYTQ0gCI8hcE42,1,5.118,9,0,5,4,8,5 + 4 = ?,5,9,9,1476988503651,VS_production,1335
mgQjjlQTaGPjRsYYTQ0gCI8hcE42,1,7.219,16,0,9,7,9,9 + 7 = ?,12,16,10,1476988503651,VS_production,1336
mgQjjlQTaGPjRsYYTQ0gCI8hcE42,1,14.367,10,0,7,3,11,7 + 3 = ?,6,10,11,1476988503651,VS_production,1337
mgQjjlQTaGPjRsYYTQ0gCI8hcE42,1,15.149,6,0,4,2,12,4 + 2 = ?,1,6,12,1476988503651,VS_production,1338
mgQjjlQTaGPjRsYYTQ0gCI8hcE42,1,4.972,12,0,7,5,13,7 + 5 = ?,7,12,13,1476988503651,VS_production,1339
mgQjjlQTaGPjRsYYTQ0gCI8hcE42,1,7.067,16,0,9,7,14,9 + 7 = ?,12,16,14,1476988503651,VS_production,1340
mgQjjlQTaGPjRsYYTQ0gCI8hcE42,1,3.209,9,0,5,4,15,5 + 4 = ?,5,9,15,1476988503651,VS_production,1341
mgQjjlQTaGPjRsYYTQ0gCI8hcE42,1,11.291,13,0,8,5,17,8 + 5 = ?,9,13,16,1476988503651,VS_production,1342
mgQjjlQTaGPjRsYYTQ0gCI8hcE42,1,7.641,10,0,7,3,19,7 + 3 = ?,6,10,18,1476988503651,VS_production,1344
mgQjjlQTaGPjRsYYTQ0gCI8hcE42,1,7.609,8,0,6,2,20,6 + 2 = ?,3,8,19,1476988503651,VS_production,1345
mgQjjlQTaGPjRsYYTQ0gCI8hcE42,1,6.213,14,0,8,6,21,8 + 6 = ?,10,14,20,1476988503651,VS_production,1346
mgQjjlQTaGPjRsYYTQ0gCI8hcE42,1,8.356,9,0,6,3,23,6 + 3 = ?,4,9,22,1476988503651,VS_production,1348
mgQjjlQTaGPjRsYYTQ0gCI8hcE42,1,11.135,13,0,9,4,25,9 + 4 = ?,8,13,24,1476988503651,VS_production,1350
mgQjjlQTaGPjRsYYTQ0gCI8hcE42,1,6.119,15,1,9,6,26,9 + 6 = ?,11,15,25,1476988503651,VS_production,1351
mgQjjlQTaGPjRsYYTQ0gCI8hcE42,1,1.764,9,0,8,9,2,8 + ? = 17,12,17,2,1476988268142,SP_missing_timed,1405
mgQjjlQTaGPjRsYYTQ0gCI8hcE42,1,2.91,6,0,4,6,5,4 + ? = 10,6,10,4,1476988268142,SP_missing_timed,1407
mgQjjlQTaGPjRsYYTQ0gCI8hcE42,0,3.487,no_answer,0,6,7,4,6 + ? = 13,9,13,5,1476988268142,SP_missing_timed,1408
mgQjjlQTaGPjRsYYTQ0gCI8hcE42,1,2.697,7,0,6,7,5,6 + ? = 13,9,13,6,1476988268142,SP_missing_timed,1409
mgQjjlQTaGPjRsYYTQ0gCI8hcE42,1,1.568,5,0,3,5,6,3 + ? = 8,3,8,7,1476988268142,SP_missing_timed,1410
mgQjjlQTaGPjRsYYTQ0gCI8hcE42,1,2.213,8,0,2,8,7,2 + ? = 10,5,10,8,1476988268142,SP_missing_timed,1411
mgQjjlQTaGPjRsYYTQ0gCI8hcE42,1,1.99,9,0,5,9,9,5 + ? = 14,10,14,9,1476988268142,SP_missing_timed,1412
mgQjjlQTaGPjRsYYTQ0gCI8hcE42,0,2.315,8565722,0,7,8,8,7 + ? = 15,11,15,10,1476988268142,SP_missing_timed,1413
mgQjjlQTaGPjRsYYTQ0gCI8hcE42,1,2.012,4,0,3,4,8,3 + ? = 7,2,7,14,1476988268142,SP_missing_timed,1417
mgQjjlQTaGPjRsYYTQ0gCI8hcE42,1,1.897,6,0,4,6,11,4 + ? = 10,6,10,16,1476988268142,SP_missing_timed,1419
mgQjjlQTaGPjRsYYTQ0gCI8hcE42,1,1.428,8,0,7,8,15,7 + ? = 15,11,15,21,1476988268142,SP_missing_timed,1424
mgQjjlQTaGPjRsYYTQ0gCI8hcE42,1,1.297,8,0,2,8,17,2 + ? = 10,5,10,27,1476988268142,SP_missing_timed,1430
mgQjjlQTaGPjRsYYTQ0gCI8hcE42,1,1.68,4,0,3,4,18,3 + ? = 7,2,7,28,1476988268142,SP_missing_timed,1431
mgQjjlQTaGPjRsYYTQ0gCI8hcE42,1,2.469,7,0,6,7,1,6 + ? = 13,9,13,1,1476987777102,SP_missing,1470
mgQjjlQTaGPjRsYYTQ0gCI8hcE42,1,3.578,4,0,3,4,2,3 + ? = 7,2,7,2,1476987777102,SP_missing,1471
mgQjjlQTaGPjRsYYTQ0gCI8hcE42,1,2.593,5,0,3,5,4,3 + ? = 8,3,8,3,1476987777102,SP_missing,1472
mgQjjlQTaGPjRsYYTQ0gCI8hcE42,1,6.546,8,0,2,8,5,2 + ? = 10,5,10,4,1476987777102,SP_missing,1473
mgQjjlQTaGPjRsYYTQ0gCI8hcE42,1,3.581,9,0,5,9,6,5 + ? = 14,10,14,5,1476987777102,SP_missing,1474
mgQjjlQTaGPjRsYYTQ0gCI8hcE42,1,5.581,9,0,8,9,7,8 + ? = 17,12,17,6,1476987777102,SP_missing,1475
mgQjjlQTaGPjRsYYTQ0gCI8hcE42,1,2.934,6,0,4,6,9,4 + ? = 10,6,10,7,1476987777102,SP_missing,1476
mgQjjlQTaGPjRsYYTQ0gCI8hcE42,1,3.813,7,0,2,7,10,2 + ? = 9,4,9,8,1476987777102,SP_missing,1477
mgQjjlQTaGPjRsYYTQ0gCI8hcE42,1,1.88,8,0,7,8,11,7 + ? = 15,11,15,9,1476987777102,SP_missing,1478
mgQjjlQTaGPjRsYYTQ0gCI8hcE42,1,2.917,3,0,2,3,12,2 + ? = 5,1,5,10,1476987777102,SP_missing,1479
mgQjjlQTaGPjRsYYTQ0gCI8hcE42,1,2.328,8,0,4,8,13,4 + ? = 12,8,12,11,1476987777102,SP_missing,1480
mgQjjlQTaGPjRsYYTQ0gCI8hcE42,1,3.904,9,0,3,9,14,3 + ? = 12,7,12,12,1476987777102,SP_missing,1481
mgQjjlQTaGPjRsYYTQ0gCI8hcE42,1,10.393,7,0,6,7,15,6 + ? = 13,9,13,13,1476987777102,SP_missing,1482
mgQjjlQTaGPjRsYYTQ0gCI8hcE42,1,6.356,3,0,2,3,16,2 + ? = 5,1,5,14,1476987777102,SP_missing,1483
mgQjjlQTaGPjRsYYTQ0gCI8hcE42,1,2.648,7,0,2,7,19,2 + ? = 9,4,9,16,1476987777102,SP_missing,1485
mgQjjlQTaGPjRsYYTQ0gCI8hcE42,1,2.28,5,0,3,5,20,3 + ? = 8,3,8,17,1476987777102,SP_missing,1486
mgQjjlQTaGPjRsYYTQ0gCI8hcE42,1,2.403,4,0,3,4,21,3 + ? = 7,2,7,18,1476987777102,SP_missing,1487
mgQjjlQTaGPjRsYYTQ0gCI8hcE42,1,5.863,9,0,5,9,21,5 + ? = 14,10,14,20,1476987777102,SP_missing,1489
mgQjjlQTaGPjRsYYTQ0gCI8hcE42,0,3.362,4575865663,0,4,8,20,4 + ? = 12,8,12,23,1476987777102,SP_missing,1492
mgQjjlQTaGPjRsYYTQ0gCI8hcE42,1,3.808,8,0,4,8,21,4 + ? = 12,8,12,24,1476987777102,SP_missing,1493
mgQjjlQTaGPjRsYYTQ0gCI8hcE42,0,4.801,5257524344,0,7,8,20,7 + ? = 15,11,15,25,1476987777102,SP_missing,1494
mgQjjlQTaGPjRsYYTQ0gCI8hcE42,1,1.768,8,0,7,8,21,7 + ? = 15,11,15,26,1476987777102,SP_missing,1495
mgQjjlQTaGPjRsYYTQ0gCI8hcE42,0,3.494,254,0,2,8,20,2 + ? = 10,5,10,27,1476987777102,SP_missing,1496
mgQjjlQTaGPjRsYYTQ0gCI8hcE42,1,1.83,8,0,2,8,21,2 + ? = 10,5,10,28,1476987777102,SP_missing,1497
mgQjjlQTaGPjRsYYTQ0gCI8hcE42,0,2.671,48686285855,0,4,6,20,4 + ? = 10,6,10,29,1476987777102,SP_missing,1498
mgQjjlQTaGPjRsYYTQ0gCI8hcE42,1,4.879,6,1,4,6,21,4 + ? = 10,6,10,30,1476987777102,SP_missing,1499
H2G4H0nu4AR26aOR00ALrBfjNWi2,1,8.955,2,0,6,2,1,6 + ? = 8,3,8,2,1476988516836,VS_missing,1536
H2G4H0nu4AR26aOR00ALrBfjNWi2,0,6.58,5,0,9,7,4,9 + ? = 16,12,16,4,1476988516836,VS_missing,1538
H2G4H0nu4AR26aOR00ALrBfjNWi2,1,7.956,7,0,9,7,3,9 + ? = 16,12,16,5,1476988516836,VS_missing,1539
H2G4H0nu4AR26aOR00ALrBfjNWi2,1,4.807,4,0,9,4,4,9 + ? = 13,8,13,6,1476988516836,VS_missing,1540
H2G4H0nu4AR26aOR00ALrBfjNWi2,1,3.15,5,0,8,5,5,8 + ? = 13,9,13,9,1476988516836,VS_missing,1543
H2G4H0nu4AR26aOR00ALrBfjNWi2,1,5.06,3,0,7,3,6,7 + ? = 10,6,10,10,1476988516836,VS_missing,1544
H2G4H0nu4AR26aOR00ALrBfjNWi2,1,4.845,2,0,5,2,8,5 + ? = 7,2,7,12,1476988516836,VS_missing,1546
H2G4H0nu4AR26aOR00ALrBfjNWi2,1,3.0,3,0,6,3,10,6 + ? = 9,4,9,13,1476988516836,VS_missing,1547
H2G4H0nu4AR26aOR00ALrBfjNWi2,1,4.56,2,0,4,2,11,4 + ? = 6,1,6,14,1476988516836,VS_missing,1548
H2G4H0nu4AR26aOR00ALrBfjNWi2,0,5.18,4,0,8,6,12,8 + ? = 14,10,14,15,1476988516836,VS_missing,1549
H2G4H0nu4AR26aOR00ALrBfjNWi2,1,2.085,6,0,8,6,11,8 + ? = 14,10,14,16,1476988516836,VS_missing,1550
H2G4H0nu4AR26aOR00ALrBfjNWi2,1,3.168,2,0,5,2,12,5 + ? = 7,2,7,17,1476988516836,VS_missing,1551
H2G4H0nu4AR26aOR00ALrBfjNWi2,1,3.744,2,0,6,2,13,6 + ? = 8,3,8,18,1476988516836,VS_missing,1552
H2G4H0nu4AR26aOR00ALrBfjNWi2,1,2.565,2,0,4,2,14,4 + ? = 6,1,6,19,1476988516836,VS_missing,1553
H2G4H0nu4AR26aOR00ALrBfjNWi2,1,4.199,5,0,7,5,16,7 + ? = 12,7,12,20,1476988516836,VS_missing,1554
H2G4H0nu4AR26aOR00ALrBfjNWi2,1,1.876,3,0,7,3,17,7 + ? = 10,6,10,21,1476988516836,VS_missing,1555
H2G4H0nu4AR26aOR00ALrBfjNWi2,1,2.822,3,0,6,3,18,6 + ? = 9,4,9,22,1476988516836,VS_missing,1556
H2G4H0nu4AR26aOR00ALrBfjNWi2,1,3.75,6,0,9,6,19,9 + ? = 15,11,15,23,1476988516836,VS_missing,1557
H2G4H0nu4AR26aOR00ALrBfjNWi2,1,4.959,4,1,9,4,24,9 + ? = 13,8,13,27,1476988516836,VS_missing,1561
H2G4H0nu4AR26aOR00ALrBfjNWi2,1,2.151,1,0,8,6,1,8 + 6 = 15,10,14,1,1476988148610,SP_verification_timed,1500
H2G4H0nu4AR26aOR00ALrBfjNWi2,1,2.609,0,0,9,4,2,9 + 4 = 13,8,13,2,1476988148610,SP_verification_timed,1501
H2G4H0nu4AR26aOR00ALrBfjNWi2,1,1.61,0,0,5,4,4,5 + 4 = 9,5,9,3,1476988148610,SP_verification_timed,1502
H2G4H0nu4AR26aOR00ALrBfjNWi2,1,2.05,0,0,6,3,6,6 + 3 = 9,4,9,5,1476988148610,SP_verification_timed,1504
H2G4H0nu4AR26aOR00ALrBfjNWi2,1,2.066,1,0,6,2,7,6 + 2 = 6,3,8,6,1476988148610,SP_verification_timed,1505
H2G4H0nu4AR26aOR00ALrBfjNWi2,1,1.924,0,0,5,2,9,5 + 2 = 7,2,7,7,1476988148610,SP_verification_timed,1506
H2G4H0nu4AR26aOR00ALrBfjNWi2,1,0.086,0,0,7,5,10,7 + 5 = 12,7,12,8,1476988148610,SP_verification_timed,1507
H2G4H0nu4AR26aOR00ALrBfjNWi2,1,2.166,1,0,8,5,11,8 + 5 = 15,9,13,9,1476988148610,SP_verification_timed,1508
H2G4H0nu4AR26aOR00ALrBfjNWi2,1,1.844,0,0,4,2,12,4 + 2 = 6,1,6,10,1476988148610,SP_verification_timed,1509
H2G4H0nu4AR26aOR00ALrBfjNWi2,1,2.384,1,0,9,6,13,9 + 6 = 16,11,15,11,1476988148610,SP_verification_timed,1510
H2G4H0nu4AR26aOR00ALrBfjNWi2,0,2.227,0,0,9,7,12,9 + 7 = 11,12,16,12,1476988148610,SP_verification_timed,1511
H2G4H0nu4AR26aOR00ALrBfjNWi2,1,2.427,0,0,9,7,13,9 + 7 = 16,12,16,13,1476988148610,SP_verification_timed,1512
H2G4H0nu4AR26aOR00ALrBfjNWi2,0,2.084,0,0,9,4,12,9 + 4 = 12,8,13,14,1476988148610,SP_verification_timed,1513
H2G4H0nu4AR26aOR00ALrBfjNWi2,1,1.77,0,0,6,3,13,6 + 3 = 9,4,9,15,1476988148610,SP_verification_timed,1514
H2G4H0nu4AR26aOR00ALrBfjNWi2,1,2.059,0,0,5,2,14,5 + 2 = 7,2,7,16,1476988148610,SP_verification_timed,1515
H2G4H0nu4AR26aOR00ALrBfjNWi2,1,1.511,1,0,6,2,15,6 + 2 = 9,3,8,17,1476988148610,SP_verification_timed,1516
H2G4H0nu4AR26aOR00ALrBfjNWi2,1,2.993,0,0,7,3,17,7 + 3 = 10,6,10,18,1476988148610,SP_verification_timed,1517
H2G4H0nu4AR26aOR00ALrBfjNWi2,1,2.505,1,0,7,5,18,7 + 5 = 10,7,12,19,1476988148610,SP_verification_timed,1518
H2G4H0nu4AR26aOR00ALrBfjNWi2,0,2.999,1,0,8,6,17,8 + 6 = 14,10,14,20,1476988148610,SP_verification_timed,1519
H2G4H0nu4AR26aOR00ALrBfjNWi2,1,1.261,0,0,9,6,17,9 + 6 = 15,11,15,22,1476988148610,SP_verification_timed,1521
H2G4H0nu4AR26aOR00ALrBfjNWi2,1,0.609,0,0,5,4,18,5 + 4 = 9,5,9,23,1476988148610,SP_verification_timed,1522
H2G4H0nu4AR26aOR00ALrBfjNWi2,0,0.197,0,0,4,2,17,4 + 2 = 9,1,6,24,1476988148610,SP_verification_timed,1523
H2G4H0nu4AR26aOR00ALrBfjNWi2,0,0.08,0,0,9,7,16,9 + 7 = 17,12,16,25,1476988148610,SP_verification_timed,1524
H2G4H0nu4AR26aOR00ALrBfjNWi2,0,0.074,0,0,9,4,15,9 + 4 = 11,8,13,26,1476988148610,SP_verification_timed,1525
H2G4H0nu4AR26aOR00ALrBfjNWi2,1,0.048,0,0,8,6,16,8 + 6 = 14,10,14,27,1476988148610,SP_verification_timed,1526
H2G4H0nu4AR26aOR00ALrBfjNWi2,0,0.053,0,0,8,5,15,8 + 5 = 15,9,13,28,1476988148610,SP_verification_timed,1527
H2G4H0nu4AR26aOR00ALrBfjNWi2,1,2.487,1,0,4,2,16,4 + 2 = 5,1,6,29,1476988148610,SP_verification_timed,1528
H2G4H0nu4AR26aOR00ALrBfjNWi2,0,0.176,0,0,9,7,15,9 + 7 = 19,12,16,30,1476988148610,SP_verification_timed,1529
H2G4H0nu4AR26aOR00ALrBfjNWi2,0,0.081,0,0,9,4,14,9 + 4 = 12,8,13,31,1476988148610,SP_verification_timed,1530
H2G4H0nu4AR26aOR00ALrBfjNWi2,0,0.129,0,0,8,5,13,8 + 5 = 14,9,13,32,1476988148610,SP_verification_timed,1531
H2G4H0nu4AR26aOR00ALrBfjNWi2,1,0.776,1,0,9,4,13,9 + 4 = 14,8,13,33,1476988148610,SP_verification_timed,1532
H2G4H0nu4AR26aOR00ALrBfjNWi2,1,0.672,1,0,8,5,14,8 + 5 = 14,9,13,34,1476988148610,SP_verification_timed,1533
H2G4H0nu4AR26aOR00ALrBfjNWi2,1,0.658,1,1,9,4,15,9 + 4 = 15,8,13,35,1476988148610,SP_verification_timed,1534
H2G4H0nu4AR26aOR00ALrBfjNWi2,1,4.783,1,0,9,7,1,9 + 7 = 17,12,16,1,1476987770680,SP_verification,1635
H2G4H0nu4AR26aOR00ALrBfjNWi2,1,1.798,1,0,7,3,2,7 + 3 = 7,6,10,2,1476987770680,SP_verification,1636
H2G4H0nu4AR26aOR00ALrBfjNWi2,0,2.727,1,0,6,3,1,6 + 3 = 9,4,9,3,1476987770680,SP_verification,1637
H2G4H0nu4AR26aOR00ALrBfjNWi2,0,1.424,0,0,4,2,1,4 + 2 = 5,1,6,5,1476987770680,SP_verification,1639
H2G4H0nu4AR26aOR00ALrBfjNWi2,0,3.745,1,0,9,6,0,9 + 6 = 15,11,15,6,1476987770680,SP_verification,1640
H2G4H0nu4AR26aOR00ALrBfjNWi2,0,4.405,0,0,9,4,0,9 + 4 = 11,8,13,7,1476987770680,SP_verification,1641
H2G4H0nu4AR26aOR00ALrBfjNWi2,0,3.129,1,0,8,5,0,8 + 5 = 13,9,13,8,1476987770680,SP_verification,1642
H2G4H0nu4AR26aOR00ALrBfjNWi2,0,2.888,1,0,5,4,0,5 + 4 = 9,5,9,9,1476987770680,SP_verification,1643
H2G4H0nu4AR26aOR00ALrBfjNWi2,1,1.98,1,0,6,2,1,6 + 2 = 10,3,8,10,1476987770680,SP_verification,1644
H2G4H0nu4AR26aOR00ALrBfjNWi2,1,2.95,0,0,5,2,2,5 + 2 = 7,2,7,11,1476987770680,SP_verification,1645
H2G4H0nu4AR26aOR00ALrBfjNWi2,0,2.755,1,0,8,6,1,8 + 6 = 14,10,14,12,1476987770680,SP_verification,1646
H2G4H0nu4AR26aOR00ALrBfjNWi2,1,1.881,1,0,9,4,2,9 + 4 = 10,8,13,13,1476987770680,SP_verification,1647
H2G4H0nu4AR26aOR00ALrBfjNWi2,0,0.093,1,0,8,6,1,8 + 6 = 14,10,14,14,1476987770680,SP_verification,1648
H2G4H0nu4AR26aOR00ALrBfjNWi2,1,0.114,1,0,9,6,2,9 + 6 = 17,11,15,15,1476987770680,SP_verification,1649
H2G4H0nu4AR26aOR00ALrBfjNWi2,0,0.065,1,0,4,2,1,4 + 2 = 6,1,6,16,1476987770680,SP_verification,1650
H2G4H0nu4AR26aOR00ALrBfjNWi2,1,0.227,1,0,7,3,2,7 + 3 = 8,6,10,17,1476987770680,SP_verification,1651
H2G4H0nu4AR26aOR00ALrBfjNWi2,1,0.542,1,0,5,2,3,5 + 2 = 8,2,7,18,1476987770680,SP_verification,1652
H2G4H0nu4AR26aOR00ALrBfjNWi2,0,2.079,1,0,9,7,2,9 + 7 = 16,12,16,19,1476987770680,SP_verification,1653
H2G4H0nu4AR26aOR00ALrBfjNWi2,1,1.145,1,0,8,5,3,8 + 5 = 15,9,13,20,1476987770680,SP_verification,1654
H2G4H0nu4AR26aOR00ALrBfjNWi2,0,2.017,1,0,6,3,2,6 + 3 = 9,4,9,21,1476987770680,SP_verification,1655
H2G4H0nu4AR26aOR00ALrBfjNWi2,1,2.052,0,0,7,5,3,7 + 5 = 12,7,12,22,1476987770680,SP_verification,1656
H2G4H0nu4AR26aOR00ALrBfjNWi2,1,3.498,1,0,5,4,4,5 + 4 = 7,5,9,23,1476987770680,SP_verification,1657
H2G4H0nu4AR26aOR00ALrBfjNWi2,1,2.714,1,0,6,2,5,6 + 2 = 10,3,8,24,1476987770680,SP_verification,1658
H2G4H0nu4AR26aOR00ALrBfjNWi2,1,2.443,0,0,6,3,7,6 + 3 = 9,4,9,25,1476987770680,SP_verification,1659
H2G4H0nu4AR26aOR00ALrBfjNWi2,1,4.801,1,0,4,2,8,4 + 2 = 5,1,6,26,1476987770680,SP_verification,1660
H2G4H0nu4AR26aOR00ALrBfjNWi2,0,3.755,1,0,9,6,7,9 + 6 = 15,11,15,27,1476987770680,SP_verification,1661
H2G4H0nu4AR26aOR00ALrBfjNWi2,1,2.903,1,0,9,4,8,9 + 4 = 14,8,13,28,1476987770680,SP_verification,1662
H2G4H0nu4AR26aOR00ALrBfjNWi2,0,2.323,1,0,8,6,9,8 + 6 = 14,10,14,31,1476987770680,SP_verification,1665
H2G4H0nu4AR26aOR00ALrBfjNWi2,0,0.728,1,0,8,6,8,8 + 6 = 14,10,14,32,1476987770680,SP_verification,1666
H2G4H0nu4AR26aOR00ALrBfjNWi2,0,0.463,1,0,4,2,7,4 + 2 = 6,1,6,33,1476987770680,SP_verification,1667
H2G4H0nu4AR26aOR00ALrBfjNWi2,0,0.395,1,0,9,7,6,9 + 7 = 16,12,16,34,1476987770680,SP_verification,1668
H2G4H0nu4AR26aOR00ALrBfjNWi2,0,0.398,1,0,6,3,5,6 + 3 = 9,4,9,35,1476987770680,SP_verification,1669
H2G4H0nu4AR26aOR00ALrBfjNWi2,1,2.209,0,0,9,6,6,9 + 6 = 15,11,15,36,1476987770680,SP_verification,1670
H2G4H0nu4AR26aOR00ALrBfjNWi2,1,0.449,0,0,8,6,7,8 + 6 = 14,10,14,37,1476987770680,SP_verification,1671
H2G4H0nu4AR26aOR00ALrBfjNWi2,1,1.075,0,0,8,6,8,8 + 6 = 14,10,14,38,1476987770680,SP_verification,1672
H2G4H0nu4AR26aOR00ALrBfjNWi2,1,1.261,0,0,4,2,10,4 + 2 = 6,1,6,39,1476987770680,SP_verification,1673
H2G4H0nu4AR26aOR00ALrBfjNWi2,1,2.796,0,0,9,7,11,9 + 7 = 16,12,16,40,1476987770680,SP_verification,1674
H2G4H0nu4AR26aOR00ALrBfjNWi2,1,1.564,0,1,6,3,12,6 + 3 = 9,4,9,41,1476987770680,SP_verification,1675
H2G4H0nu4AR26aOR00ALrBfjNWi2,1,3.025,0,0,2,3,5,2 + 3 = 5,1,5,4,1476988914305,VS_verification,1706
H2G4H0nu4AR26aOR00ALrBfjNWi2,1,4.795,0,0,2,7,13,2 + 7 = 9,4,9,11,1476988914305,VS_verification,1713
H2G4H0nu4AR26aOR00ALrBfjNWi2,1,4.941,1,0,4,8,14,4 + 8 = 16,8,12,12,1476988914305,VS_verification,1714
H2G4H0nu4AR26aOR00ALrBfjNWi2,0,4.757,1,0,2,8,14,2 + 8 = 10,5,10,14,1476988914305,VS_verification,1716
H2G4H0nu4AR26aOR00ALrBfjNWi2,0,4.347,1,0,3,5,13,3 + 5 = 8,3,8,15,1476988914305,VS_verification,1717
H2G4H0nu4AR26aOR00ALrBfjNWi2,1,2.261,0,0,2,3,16,2 + 3 = 5,1,5,18,1476988914305,VS_verification,1720
H2G4H0nu4AR26aOR00ALrBfjNWi2,1,3.746,1,0,2,7,18,2 + 7 = 11,4,9,19,1476988914305,VS_verification,1721
H2G4H0nu4AR26aOR00ALrBfjNWi2,1,4.319,0,0,4,6,19,4 + 6 = 10,6,10,20,1476988914305,VS_verification,1722
H2G4H0nu4AR26aOR00ALrBfjNWi2,1,1.812,12,1,3,9,27,3 + 9 = ?,7,12,25,1476987935167,SP_production_timed,1586
H2G4H0nu4AR26aOR00ALrBfjNWi2,1,2.381,7,1,3,4,27,3 + 4 = ?,2,7,24,1476987539417,SP_production,1634
H2G4H0nu4AR26aOR00ALrBfjNWi2,1,3.276,9,0,5,4,6,5 + 4 = ?,5,9,5,1476988271457,VS_production,1591
H2G4H0nu4AR26aOR00ALrBfjNWi2,1,3.448,8,0,6,2,7,6 + 2 = ?,3,8,6,1476988271457,VS_production,1592
H2G4H0nu4AR26aOR00ALrBfjNWi2,1,3.366,10,0,7,3,9,7 + 3 = ?,6,10,7,1476988271457,VS_production,1593
H2G4H0nu4AR26aOR00ALrBfjNWi2,1,3.422,7,0,5,2,13,5 + 2 = ?,2,7,11,1476988271457,VS_production,1597
H2G4H0nu4AR26aOR00ALrBfjNWi2,1,3.253,13,0,9,4,15,9 + 4 = ?,8,13,12,1476988271457,VS_production,1598
H2G4H0nu4AR26aOR00ALrBfjNWi2,1,3.042,6,0,4,2,17,4 + 2 = ?,1,6,14,1476988271457,VS_production,1600
H2G4H0nu4AR26aOR00ALrBfjNWi2,1,1.83,8,0,2,8,4,2 + ? = 10,5,10,3,1476988036368,SP_missing_timed,1678
H2G4H0nu4AR26aOR00ALrBfjNWi2,1,2.052,7,0,2,7,9,2 + ? = 9,4,9,7,1476988036368,SP_missing_timed,1682
H2G4H0nu4AR26aOR00ALrBfjNWi2,1,1.901,6,0,4,6,14,4 + ? = 10,6,10,12,1476988036368,SP_missing_timed,1687
H2G4H0nu4AR26aOR00ALrBfjNWi2,1,2.247,9,0,3,9,15,3 + ? = 12,7,12,13,1476988036368,SP_missing_timed,1688
H2G4H0nu4AR26aOR00ALrBfjNWi2,1,2.244,3,0,2,3,16,2 + ? = 5,1,5,14,1476988036368,SP_missing_timed,1689
H2G4H0nu4AR26aOR00ALrBfjNWi2,1,2.301,8,0,7,8,18,7 + ? = 15,11,15,15,1476988036368,SP_missing_timed,1690
H2G4H0nu4AR26aOR00ALrBfjNWi2,1,2.019,8,0,4,8,19,4 + ? = 12,8,12,16,1476988036368,SP_missing_timed,1691
